File: projects/solarcell/xrd/XRD-new method/XRD/input data/sample1.csv
Angle,Intensity 1
27.9833,0.0256849
28.0153,0.0291096
28.0474,0.0291096
28.0795,0.02739726
28.1115,0.008561644
28.1436,0.04109589
28.1756,0.0222603
28.2077,0.0222603
28.2398,0.0376712
28.2718,0.02739726
28.3039,0.0291096
28.336,0.02739726
28.3681,0.0205479
28.4001,0.0222603
28.4322,0.0222603
28.4643,0.0222603
28.4964,0.0291096
28.5285,0.0325342
28.5606,0.04109589
28.5927,0.0171233
28.6248,0.0205479
28.6569,0.0393836
28.689,0.0239726
28.7211,0.0291096
28.7532,0.0291096
28.7853,0.0256849
28.8174,0.015411
28.8495,0.02739726
28.8816,0.0291096
28.9137,0.0342466
28.9458,0.0479452
28.978,0.0325342
29.0101,0.0188356
29.0422,0.0256849
29.0743,0.0171233
29.1065,0.0256849
29.1386,0.0119863
29.1708,0.0239726
29.2029,0.02739726
29.235,0.0291096
29.2672,0.0205479
29.2993,0.0222603
29.3315,0.0222603
29.3636,0.0171233
29.3958,0.0171233
29.4279,0.0205479
29.4601,0.02739726
29.4923,0.02739726
29.5244,0.0205479
29.5566,0.0256849
29.5887,0.0205479
29.6209,0.0119863
29.6531,0.0239726
29.6852,0.0239726
29.7174,0.0308219
29.7496,0.0256849
29.7818,0.0222603
29.8139,0.0342466
29.8461,0.0205479
29.8783,0.02739726
29.9104,0.0222603
29.9426,0.0308219
29.9748,0.015411
30.007,0.0393836
30.0391,0.0205479
30.0713,0.0205479
30.1035,0.0222603
30.1357,0.0359589
30.1678,0.0188356
30.2,0.0222603
30.2322,0.0239726
30.2643,0.0342466
30.2965,0.0205479
30.3287,0.02739726
30.3608,0.0205479
30.393,0.0359589
30.4252,0.0222603
30.4573,0.0171233
30.4895,0.0308219
30.5217,0.0239726
30.5538,0.0222603
30.586,0.0342466
30.6181,0.0239726
30.6503,0.0308219
30.6825,0.0205479
30.7146,0.0308219
30.7468,0.02739726
30.7789,0.0256849
30.811,0.0239726
30.8432,0.0325342
30.8753,0.0342466
30.9075,0.0205479
30.9396,0.0308219
30.9717,0.0222603
31.0039,0.0188356
31.036,0.0188356
31.0681,0.0325342
31.1002,0.0325342
31.1323,0.0239726
31.1645,0.0222603
31.1966,0.0342466
31.2287,0.0222603
31.2608,0.0205479
31.2929,0.0308219
31.325,0.0222603
31.3571,0.02739726
31.3891,0.0239726
31.4212,0.0188356
31.4533,0.0359589
31.4854,0.0393836
31.5174,0.0342466
31.5495,0.02739726
31.5816,0.0308219
31.6136,0.0496575
31.6457,0.0804795
31.6777,0.0667808
31.7098,0.101027
31.7418,0.159247
31.7738,0.181507
31.8058,0.248288
31.8379,0.244863
31.8699,0.270548
31.9019,0.256849
31.9339,0.267123
31.9659,0.261986
31.9979,0.320205
32.0298,0.289384
32.0618,0.363014
32.0938,0.434932
32.1258,0.518836
32.1577,0.570205
32.1897,0.559932
32.2216,0.592466
32.2535,0.604452
32.2855,0.535959
32.3174,0.431507
32.3493,0.311644
32.3812,0.277397
32.4131,0.244863
32.445,0.140411
32.4769,0.114726
32.5088,0.0667808
32.5407,0.0582192
32.5725,0.0479452
32.6044,0.0359589
32.6362,0.02739726
32.6681,0.0291096
32.6999,0.0291096
32.7317,0.0171233
32.7635,0.0342466
32.7954,0.0393836
32.8272,0.0239726
32.8589,0.0291096
32.8907,0.0308219
32.9225,0.0222603
32.9543,0.0239726
32.986,0.0256849
33.0178,0.0325342
33.0495,0.0205479
33.0812,0.02739726
33.1129,0.010274
33.1447,0.0291096
33.1764,0.02739726
33.208,0.0171233
33.2397,0.0205479
33.2714,0.0291096
33.3031,0.0256849
33.3347,0.0376712
33.3663,0.0188356
33.398,0.0188356
33.4296,0.02739726
33.4612,0.0291096
33.4928,0.0256849
33.5244,0.01369863
33.556,0.0256849
33.5875,0.0342466
33.6191,0.0308219
33.6506,0.0205479
33.6821,0.0222603
33.7137,0.0171233
33.7452,0.0222603
33.7767,0.0171233
33.8082,0.0188356
33.8396,0.015411
33.8711,0.0291096
33.9026,0.0222603
33.934,0.0205479
33.9654,0.01369863
33.9969,0.0291096
34.0283,0.0256849
34.0597,0.02739726
34.0911,0.0256849
34.1226,0.0342466
34.154,0.0291096
34.1854,0.02739726
34.2168,0.0222603
34.2482,0.0308219
34.2796,0.0325342
34.311,0.0667808
34.3425,0.0530822
34.3739,0.0719178
34.4053,0.0821918
34.4367,0.104452
34.4682,0.126712
34.4996,0.128425
34.5311,0.15411
34.5625,0.150685
34.594,0.133562
34.6255,0.15411
34.657,0.162671
34.6885,0.203767
34.72,0.287671
34.7516,0.335616
34.7831,0.340753
34.8147,0.393836
34.8463,0.393836
34.8779,0.419521
34.9095,0.549658
34.9411,0.493151
34.9728,0.428082
35.0045,0.349315
35.0362,0.294521
35.0679,0.219178
35.0997,0.142123
35.1315,0.118151
35.1633,0.0804795
35.1951,0.0479452
35.227,0.04109589
35.2588,0.0445205
35.2908,0.0291096
35.3227,0.0239726
35.3547,0.0376712
35.3867,0.0205479
35.4187,0.0376712
35.4508,0.0239726
35.4829,0.01369863
35.5151,0.0291096
35.5472,0.0239726
35.5795,0.0188356
35.6117,0.0205479
35.644,0.0205479
35.6763,0.0205479
35.7087,0.0188356
35.7411,0.0428082
35.7736,0.0256849
35.8061,0.0359589
35.8386,0.0308219
35.8712,0.0188356
35.9039,0.0239726
35.9366,0.0205479
35.9693,0.0462329
36.0021,0.0342466
36.0349,0.0359589
36.0677,0.0445205
36.1006,0.0393836
36.1335,0.0719178
36.1665,0.113014
36.1995,0.08390411
36.2325,0.152397
36.2655,0.22089
36.2986,0.219178
36.3317,0.273973
36.3648,0.321918
36.3979,0.380137
36.4311,0.369863
36.4643,0.446918
36.4974,0.393836
36.5306,0.364726
36.5638,0.40411
36.597,0.405822
36.6302,0.505137
36.6635,0.542808
36.6967,0.534247
36.7299,0.690068
36.7631,0.751712
36.7963,0.881849
36.8295,0.931507
36.8627,1
36.8959,0.806507
36.9291,0.702055
36.9622,0.638699
36.9954,0.472603
37.0285,0.371575
37.0616,0.304795
37.0947,0.224315
37.1278,0.128425
37.1608,0.0907534
37.1938,0.0667808
37.2268,0.0496575
37.2597,0.0393836
37.2926,0.0393836
37.3255,0.0308219
37.3584,0.0222603
37.3912,0.0325342
37.4239,0.0171233
37.4566,0.0256849
37.4893,0.0325342
37.5219,0.0256849
37.5545,0.02739726
37.587,0.0239726
37.6195,0.0222603
37.6519,0.02739726
37.6842,0.01369863
37.7165,0.0239726
37.7487,0.0256849
37.7809,0.015411
37.813,0.0291096
37.8451,0.0119863
37.877,0.0308219
37.9089,0.0291096
37.9407,0.0171233
37.9725,0.0239726
38.0042,0.010274
38.0358,0.0205479
38.0673,0.0308219
38.0988,0.0256849
38.1302,0.0205479
38.1616,0.0171233
38.1929,0.015411
38.2241,0.0188356
38.2553,0.0205479
38.2865,0.0205479
38.3175,0.0205479
38.3486,0.0222603
38.3796,0.015411
38.4105,0.015411
38.4414,0.0188356
38.4722,0.015411
38.503,0.0222603
38.5338,0.0171233
38.5645,0.0205479
38.5952,0.0188356
38.6258,0.015411
38.6565,0.015411
38.687,0.0291096
38.7176,0.0256849
38.7481,0.0256849
38.7786,0.015411
38.8091,0.0119863
38.8395,0.0222603
38.87,0.0342466
38.9004,0.0291096
38.9308,0.0205479
38.9611,0.0188356
38.9915,0.0205479
39.0218,0.01369863
39.0522,0.0171233
39.0825,0.01369863
39.1128,0.0171233
39.1431,0.010274
39.1734,0.0188356
39.2037,0.01369863
39.234,0.0171233
39.2643,0.0205479
39.2946,0.02739726
39.325,0.0205479
39.3553,0.015411
39.3856,0.01369863
39.4159,0.01369863
39.4463,0.0205479
39.4766,0.0188356
39.507,0.0188356
39.5374,0.015411
39.5678,0.0205479
39.5982,0.0222603
39.6286,0.0239726
39.6591,0.015411
39.6896,0.0239726
39.7201,0.015411
39.7507,0.01369863
39.7812,0.0222603
39.8119,0.0171233
39.8425,0.0188356
39.8732,0.008561644
39.9039,0.0256849
39.9346,0.0171233
39.9654,0.008561644
39.9962,0.0188356
40.0271,0.010274
40.0579,0.0256849
40.0888,0.015411
40.1198,0.0205479
40.1508,0.0171233
40.1818,0.0119863
40.2128,0.0205479
40.2439,0.0222603
40.275,0.0188356
40.3061,0.008561644
40.3373,0.0171233
40.3685,0.0188356
40.3997,0.0119863
40.4309,0.010274
40.4622,0.015411
40.4935,0.0222603
40.5249,0.0119863
40.5562,0.015411
40.5876,0.008561644
40.619,0.0119863
40.6505,0.0188356
40.6819,0.0205479
40.7134,0.0171233
40.745,0.0205479
40.7765,0.02739726
40.8081,0.0205479
40.8397,0.015411
40.8713,0.015411
40.903,0.015411
40.9346,0.01369863
40.9663,0.0205479
40.998,0.015411
41.0298,0.015411
41.0616,0.01369863
41.0933,0.015411
41.1251,0.006849315
41.157,0.0205479
41.1888,0.010274
41.2207,0.0119863
41.2526,0.0205479
41.2845,0.001712329
41.3164,0.0291096
41.3484,0.0171233
41.3804,0.015411
41.4123,0.0171233
41.4444,0.010274
41.4764,0.008561644
41.5084,0.0205479
41.5405,0.01369863
41.5726,0.008561644
41.6047,0.0205479
41.6368,0.005136986
41.6689,0.0188356
41.701,0.0119863
41.7332,0.0222603
41.7654,0.0239726
41.7976,0.006849315
41.8298,0.0171233
41.862,0.0119863
41.8942,0.015411
41.9265,0.0171233
41.9587,0.0188356
41.991,0.010274
42.0233,0.0171233
42.0556,0.0171233
42.0879,0.006849315
42.1202,0.010274
42.1526,0.0342466
42.1849,0.015411
42.2173,0.006849315
42.2496,0.01369863
42.282,0.0188356
42.3144,0.0256849
42.3468,0.0205479
42.3792,0.0291096
42.4116,0.015411
42.444,0.0119863
42.4764,0.0171233
42.5089,0.005136986
42.5413,0.0205479
42.5738,0.01369863
42.6062,0.010274
42.6387,0.010274
42.6711,0.0171233
42.7036,0.0222603
42.7361,0.0239726
42.7686,0.0171233
42.8011,0.006849315
42.8336,0.0256849
42.8661,0.0188356
42.8986,0.0171233
42.9311,0.02739726
42.9636,0.015411
42.9961,0.0171233
43.0286,0.008561644
43.0611,0.010274
43.0936,0.0239726
43.1261,0.008561644
43.1587,0.0119863
43.1912,0.0119863
43.2237,0.015411
43.2562,0.0119863
43.2887,0.0119863
43.3213,0.015411
43.3538,0.0171233
43.3863,0.015411
43.4188,0.015411
43.4513,0.0205479
43.4838,0.0119863
43.5163,0.0171233
43.5488,0.01369863
43.5813,0.0171233
43.6138,0.0205479
43.6463,0.0222603
43.6788,0.0239726
43.7113,0.0325342
43.7438,0.0205479
43.7763,0.02739726
43.8088,0.0188356
43.8413,0.0188356
43.8737,0.0205479
43.9062,0.01369863
43.9387,0.015411
43.9712,0.0119863
44.0036,0.0188356
44.0361,0.0205479
44.0685,0.0171233
44.101,0.008561644
44.1335,0.0171233
44.1659,0.010274
44.1984,0.015411
44.2308,0.0171233
44.2632,0.010274
44.2957,0.0119863
44.3281,0.0119863
44.3606,0.0171233
44.393,0.006849315
44.4254,0.015411
44.4578,0.015411
44.4903,0.005136986
44.5227,0.0222603
44.5551,0.006849315
44.5875,0.015411
44.6199,0.0119863
44.6523,0.0171233
44.6847,0.0205479
44.7171,0.0188356
44.7495,0.0205479
44.7819,0.01369863
44.8143,0.015411
44.8467,0.0256849
44.8791,0.0119863
44.9115,0.01369863
44.9438,0.006849315
44.9762,0.0188356
45.0086,0.006849315
45.041,0.010274
45.0733,0.0171233
45.1057,0.015411
45.1381,0.0171233
45.1704,0.008561644
45.2028,0.008561644
45.2351,0.0171233
45.2675,0.0119863
45.2998,0.0205479
45.3321,0.0171233
45.3645,0.01369863
45.3968,0.01369863
45.4292,0.0119863
45.4615,0.0119863
45.4938,0.010274
45.5261,0.015411
45.5585,0.0239726
45.5908,0.01369863
45.6231,0.01369863
45.6554,0.0171233
45.6877,0.005136986
45.72,0.006849315
45.7523,0.008561644
45.7846,0.006849315
45.8169,0.0188356
45.8492,0.006849315
45.8815,0.0205479
45.9137,0.01369863
45.946,0.0119863
45.9783,0.010274
46.0106,0.015411
46.0428,0.008561644
46.0751,0.01369863
46.1074,0.008561644
46.1396,0.01369863
46.1719,0.0205479
46.2041,0.0171233
46.2364,0.0205479
46.2686,0.0188356
46.3009,0.0171233
46.3331,0.0205479
46.3654,0.0119863
46.3976,0.008561644
46.4298,0.008561644
46.462,0.01369863
46.4943,0.015411
46.5265,0.01369863
46.5587,0.006849315
46.5909,0.010274
46.6231,0.010274
46.6553,0.0119863
46.6875,0.0205479
46.7197,0.0119863
46.7519,0.008561644
46.7841,0.01369863
46.8163,0.010274
46.8485,0.006849315
46.8807,0.006849315
46.9128,0.01369863
46.945,0.006849315
46.9772,0.02739726
47.0094,0.006849315
47.0415,0.008561644
47.0737,0.0205479
47.1058,0.005136986
47.138,0.0171233
47.1701,0.0119863
47.2023,0.015411
47.2344,0.010274
47.2666,0.015411
47.2987,0.01369863
47.3308,0.015411
47.3629,0.01369863
47.3951,0.01369863
47.4272,0.0205479
47.4593,0.02739726
47.4914,0.0171233
47.5235,0.04109589
47.5556,0.0239726
47.5877,0.0325342
47.6198,0.0530822
47.6519,0.0650685
47.684,0.0599315
47.7161,0.0702055
47.7482,0.0565068
47.7803,0.0787671
47.8123,0.0702055
47.8444,0.0633562
47.8765,0.0787671
47.9085,0.0787671
47.9406,0.109589
47.9726,0.0924658
48.0047,0.0821918
48.0367,0.0770548
48.0688,0.08390411
48.1008,0.131849
48.1329,0.145548
48.1649,0.130137
48.1969,0.159247
48.229,0.160959
48.261,0.179795
48.293,0.19863
48.325,0.157534
48.357,0.155822
48.389,0.152397
48.421,0.145548
48.453,0.0958904
48.485,0.08390411
48.517,0.0702055
48.549,0.0565068
48.581,0.0359589
48.613,0.0325342
48.6449,0.0325342
48.6769,0.0171233
48.7089,0.015411
48.7408,0.0171233
48.7728,0.01369863
48.8048,0.0222603
48.8367,0.010274
48.8687,0.010274
48.9006,0.01369863
48.9326,0.010274
48.9645,0.0171233
48.9964,0.008561644
49.0284,0.01369863
49.0603,0.0119863
49.0922,0.010274
49.1242,0.005136986
49.1561,0.010274
49.188,0.0256849
49.22,0.0171233
49.2519,0.008561644
49.2838,0.006849315
49.3157,0.010274
49.3476,0.01369863
49.3795,0.006849315
49.4115,0.0188356
49.4434,0.015411
49.4753,0.0222603
49.5072,0.010274
49.5391,0.0205479
49.571,0.01369863
49.6029,0.008561644
49.6348,0.010274
49.6667,0.006849315
49.6986,0.003424658
49.7305,0.008561644
49.7624,0.0119863
49.7943,0.0119863
49.8262,0.010274
49.8581,0.015411
49.89,0.0171233
49.9219,0.010274
49.9538,0.0222603
49.9857,0.01369863
50.0176,0.008561644
50.0495,0.010274
50.0814,0.015411
50.1133,0.005136986
50.1452,0.006849315
50.1771,0.010274
50.209,0.010274
50.241,0.01369863
50.2729,0.008561644
50.3048,0.01369863
50.3367,0.006849315
50.3686,0.010274
50.4005,0.010274
50.4324,0.015411
50.4643,0.0171233
50.4962,0.0171233
50.5282,0.0188356
50.5601,0.003424658
50.592,0.006849315
50.6239,0.0119863
50.6558,0.01369863
50.6878,0.015411
50.7197,0.01369863
50.7516,0.008561644
50.7836,0.01369863
50.8155,0.0171233
50.8474,0.0171233
50.8794,0.008561644
50.9113,0.0188356
50.9433,0.0119863
50.9752,0.015411
51.0072,0.0171233
51.0391,0.006849315
51.0711,0.01369863
51.103,0.006849315
51.135,0.010274
51.167,0.01369863
51.1989,0.010274
51.2309,0.015411
51.2629,0.0205479
51.2949,0.008561644
51.3269,0.006849315
51.3589,0.01369863
51.3909,0.0119863
51.4229,0.010274
51.4549,0.008561644
51.4869,0.0119863
51.5189,0.010274
51.5509,0.008561644
51.5829,0.0119863
51.615,0.006849315
51.647,0.015411
51.679,0.015411
51.7111,0.005136986
51.7431,0.01369863
51.7752,0.0119863
51.8072,0.010274
51.8393,0.0119863
51.8714,0.006849315
51.9034,0.008561644
51.9355,0.006849315
51.9676,0.0171233
51.9997,0.006849315
52.0318,0.010274
52.0639,0.010274
52.096,0.008561644
52.1281,0.01369863
52.1602,0.001712329
52.1924,0.006849315
52.2245,0.015411
52.2566,0.005136986
52.2888,0.0188356
52.3209,0.015411
52.3531,0.008561644
52.3853,0.008561644
52.4174,0.01369863
52.4496,0.0119863
52.4818,0.01369863
52.514,0.0119863
52.5462,0.005136986
52.5784,0.008561644
52.6106,0.0119863
52.6429,0.006849315
52.6751,0.0119863
52.7074,0.015411
52.7396,0.008561644
52.7719,0.010274
52.8041,0.0171233
52.8364,0.0119863
52.8687,0.005136986
52.901,0.006849315
52.9333,0.0205479
52.9656,0.01369863
52.9979,0.01369863
53.0302,0.008561644
53.0626,0.01369863
53.0949,0.01369863
53.1273,0.010274
53.1596,0.003424658
53.192,0.0171233
53.2244,0.0171233
53.2568,0.01369863
53.2892,0.010274
53.3216,0.0222603
53.354,0.01369863
53.3864,0.006849315
53.4188,0.01369863
53.4513,0.003424658
53.4837,0.0205479
53.5162,0.0119863
53.5486,0.015411
53.5811,0.005136986
53.6136,0.010274
53.646,0.008561644
53.6785,0.008561644
53.711,0.010274
53.7435,0.01369863
53.776,0.010274
53.8085,0.0171233
53.841,0.0119863
53.8735,0.003424658
53.906,0.0119863
53.9385,0.0119863
53.971,0.01369863
54.0035,0.015411
54.036,0.010274
54.0685,0.0119863
54.101,0.015411
54.1335,0.0119863
54.166,0.006849315
54.1985,0.008561644
54.231,0.0171233
54.2635,0.0119863
54.296,0.008561644
54.3285,0.0205479
54.361,0.0222603
54.3935,0.015411
54.426,0.01369863
54.4585,0.0222603
54.491,0.01369863
54.5234,0.0171233
54.5559,0.0205479
54.5884,0.006849315
54.6209,0.005136986
54.6533,0.010274
54.6858,0.015411
54.7182,0.0222603
54.7506,0.006849315
54.7831,0.001712329
54.8155,0.01369863
54.8479,0.0205479
54.8803,0.008561644
54.9127,0.0119863
54.9451,0.015411
54.9775,0.0119863
55.0098,0.008561644
55.0422,0.006849315
55.0746,0.008561644
55.1069,0.015411
55.1392,0.006849315
55.1715,0.0119863
55.2038,0.006849315
55.2361,0.01369863
55.2684,0.008561644
55.3007,0.010274
55.3329,0.0188356
55.3652,0.005136986
55.3974,0.01369863
55.4296,0.0119863
55.4618,0.010274
55.494,0.0188356
55.5262,0.0119863
55.5583,0.005136986
55.5905,0.0171233
55.6226,0.0119863
55.6547,0.015411
55.6868,0.006849315
55.7189,0.0119863
55.7509,0.01369863
55.7829,0.0188356
55.815,0.006849315
55.847,0.015411
55.8789,0.010274
55.9109,0.01369863
55.9428,0.0205479
55.9748,0.006849315
56.0067,0.0205479
56.0385,0.01369863
56.0704,0.0171233
56.1022,0.015411
56.134,0.015411
56.1658,0.01369863
56.1976,0.0119863
56.2294,0.010274
56.2611,0.0171233
56.2928,0.0171233
56.3245,0.0188356
56.3561,0.0188356
56.3878,0.015411
56.4194,0.01369863
56.451,0.0205479
56.4826,0.0188356
56.5142,0.0205479
56.5457,0.0256849
56.5772,0.0205479
56.6087,0.02739726
56.6402,0.0325342
56.6717,0.0462329
56.7032,0.0565068
56.7346,0.0428082
56.7661,0.0924658
56.7975,0.0599315
56.8289,0.0753425
56.8603,0.0941781
56.8917,0.109589
56.923,0.133562
56.9544,0.128425
56.9857,0.172945
57.0171,0.135274
57.0484,0.119863
57.0797,0.111301
57.111,0.104452
57.1423,0.123288
57.1735,0.148973
57.2048,0.196918
57.2361,0.244863
57.2673,0.236301
57.2986,0.30137
57.3298,0.315068
57.361,0.285959
57.3922,0.35274
57.4235,0.333904
57.4547,0.337329
57.4859,0.255137
57.5171,0.277397
57.5483,0.203767
57.5795,0.171233
57.6106,0.172945
57.6418,0.157534
57.673,0.14726
57.7042,0.101027
57.7354,0.0650685
57.7665,0.0616438
57.7977,0.0513699
57.8289,0.0325342
57.8601,0.0308219
57.8913,0.02739726
57.9225,0.0376712
57.9537,0.0205479
57.9849,0.0171233
58.0161,0.01369863
58.0473,0.01369863
58.0785,0.010274
58.1097,0.0205479
58.141,0.0119863
58.1722,0.01369863
58.2035,0.0291096
58.2347,0.005136986
58.266,0.005136986
58.2973,0.01369863
58.3286,0.015411
58.36,0.0222603
58.3913,0.01369863
58.4227,0.0239726
58.454,0.015411
58.4854,0.0188356
58.5168,0.0188356
58.5483,0.01369863
58.5797,0.010274
58.6112,0.008561644
58.6427,0.01369863
58.6742,0.0222603
58.7058,0.0188356
58.7373,0.008561644
58.7689,0.015411
58.8005,0.008561644
58.8322,0.0188356
58.8638,0.0119863
58.8955,0.003424658
58.9273,0.0205479
58.959,0.0188356
58.9908,0.008561644
59.0227,0.015411
59.0545,0.003424658
59.0864,0.008561644
59.1183,0.0205479
59.1503,0.005136986
59.1822,0.008561644
59.2143,0.006849315
59.2463,0.01369863
59.2783,0.010274
59.3104,0.006849315
59.3425,0.010274
59.3746,0.015411
59.4068,0.010274
59.4389,0.003424658
59.4711,0.0205479
59.5033,0.010274
59.5355,0.0171233
59.5677,0.010274
59.6,0.0205479
59.6322,0.01369863
59.6645,0.006849315
59.6967,0.0119863
59.729,0.003424658
59.7613,0.01369863
59.7935,0.015411
59.8258,0.0119863
59.8581,0.010274
59.8904,0.01369863
59.9227,0.01369863
59.9549,0.0119863
59.9872,0.0205479
60.0195,0.0222603
60.0517,0.015411
60.084,0.010274
60.1162,0.010274
60.1485,0.01369863
60.1807,0.008561644
60.2129,0.0119863
60.2451,0.0171233
60.2773,0.0188356
60.3095,0.003424658
60.3416,0.010274
60.3738,0.006849315
60.4059,0.010274
60.438,0.010274
60.47,0.0119863
60.5021,0.003424658
60.5341,0.010274
60.5661,0.0188356
60.5981,0.010274
60.6301,0.0119863
60.6621,0.0205479
60.694,0.0119863
60.7259,0.01369863
60.7579,0.006849315
60.7898,0.0171233
60.8217,0.006849315
60.8536,0.0119863
60.8855,0.01369863
60.9174,0.015411
60.9493,0.0119863
60.9812,0.0171233
61.0131,0.01369863
61.045,0.008561644
61.0769,0.0119863
61.1088,0.008561644
61.1407,0.0119863
61.1727,0.008561644
61.2046,0.01369863
61.2366,0.0119863
61.2685,0.010274
61.3005,0.015411
61.3325,0.0119863
61.3645,0.015411
61.3965,0.0119863
61.4286,0.010274
61.4606,0.008561644
61.4927,0.010274
61.5248,0.0171233
61.557,0.015411
61.5891,0.010274
61.6213,0.0188356
61.6535,0.008561644
61.6858,0.015411
61.7181,0.0205479
61.7504,0.01369863
61.7828,0.010274
61.8152,0.0119863
61.8476,0.010274
61.8801,0.005136986
61.9126,0.015411
61.9451,0.006849315
61.9777,0.008561644
62.0103,0.010274
62.0429,0.01369863
62.0756,0.01369863
62.1083,0.010274
62.1411,0.008561644
62.1738,0.01369863
62.2066,0.01369863
62.2395,0.010274
62.2723,0.0222603
62.3052,0.0188356
62.3381,0.010274
62.371,0.015411
62.404,0.0119863
62.437,0.0119863
62.47,0.015411
62.503,0.01369863
62.536,0.001712329
62.5691,0.015411
62.6022,0.0119863
62.6353,0.006849315
62.6684,0.015411
62.7015,0.0222603
62.7347,0.015411
62.7678,0.0119863
62.801,0.01369863
62.8342,0.01369863
62.8674,0.0256849
62.9006,0.0325342
62.9338,0.0205479
62.967,0.0342466
63.0003,0.0547945
63.0335,0.0530822
63.0668,0.0873288
63.1,0.0958904
63.1333,0.0753425
63.1666,0.119863
63.1998,0.157534
63.2331,0.126712
63.2664,0.138699
63.2997,0.114726
63.333,0.121575
63.3662,0.109589
63.3995,0.0907534
63.4328,0.0907534
63.466,0.0787671
63.4993,0.0941781
63.5326,0.0993151
63.5658,0.0958904
63.5991,0.140411
63.6323,0.159247
63.6655,0.172945
63.6988,0.178082
63.732,0.184932
63.7652,0.174658
63.7984,0.183219
63.8315,0.195205
63.8647,0.19863
63.8978,0.22089
63.931,0.214041
63.9641,0.184932
63.9972,0.191781
64.0303,0.140411
64.0633,0.164384
64.0964,0.104452
64.1294,0.114726
64.1624,0.0667808
64.1953,0.0547945
64.2283,0.0565068
64.2612,0.0530822
64.2941,0.0428082
64.327,0.0428082
64.3599,0.0325342
64.3927,0.0222603
64.4255,0.0222603
64.4582,0.0171233
64.491,0.010274
64.5237,0.015411
64.5563,0.0119863
64.589,0.01369863
64.6216,0.006849315
64.6542,0.008561644
64.6867,0.0119863
64.7192,0.0205479
64.7517,0.0188356
64.7842,0.0119863
64.8166,0.006849315
64.849,0.010274
64.8814,0.0119863
64.9137,0.0171233
64.946,0.001712329
64.9783,0.005136986
65.0105,0.008561644
65.0428,0.006849315
65.075,0.006849315
65.1071,0.008561644
65.1393,0.008561644
65.1714,0.010274
65.2035,0.005136986
65.2355,0.0171233
65.2676,0.003424658
65.2996,0.010274
65.3315,0.010274
65.3635,0.010274
65.3954,0.006849315
65.4273,0.01369863
65.4592,0.010274
65.4911,0.01369863
65.5229,0.008561644
65.5547,0.01369863
65.5865,0.005136986
65.6182,0.008561644
65.6499,0.015411
65.6817,0.010274
65.7133,0.01369863
65.745,0.010274
65.7766,0.008561644
65.8083,0.010274
65.8398,0.0119863
65.8714,0.008561644
65.903,0.003424658
65.9345,0.015411
65.966,0.0119863
65.9975,0.006849315
66.0289,0.015411