File: projects/solarcell/xrd/XRD-new method/XRD/input data/sample5.csv
Angle,intensity
27.9833,4.00856
28.0153,4.00913
28.0474,4.01027
28.0795,4.00628
28.1115,4.00628
28.1436,4.00856
28.1756,4.004
28.2077,4.00742
28.2398,4.00856
28.2718,4.01142
28.3039,4.00571
28.336,4.01084
28.3681,4.01199
28.4001,4.00685
28.4322,4.00514
28.4643,4.00514
28.4964,4.00799
28.5285,4.00457
28.5606,4.00571
28.5927,4.00342
28.6248,4.0097
28.6569,4.00856
28.689,4.00799
28.7211,4.00628
28.7532,4.00799
28.7853,4.0097
28.8174,4.00799
28.8495,4.004
28.8816,4.004
28.9137,4.00457
28.9458,4.00799
28.978,4.00742
29.0101,4.0097
29.0422,4.00628
29.0743,4.00457
29.1065,4.00742
29.1386,4.00514
29.1708,4.004
29.2029,4.00799
29.235,4.00856
29.2672,4.00685
29.2993,4.00628
29.3315,4.00799
29.3636,4.0097
29.3958,4.00571
29.4279,4.004
29.4601,4.00685
29.4923,4.00628
29.5244,4.0097
29.5566,4.00913
29.5887,4.00913
29.6209,4.00685
29.6531,4.00685
29.6852,4.00628
29.7174,4.00742
29.7496,4.00856
29.7818,4.01084
29.8139,4.01027
29.8461,4.00799
29.8783,4.00628
29.9104,4.01142
29.9426,4.00514
29.9748,4.01256
30.007,4.00628
30.0391,4.00685
30.0713,4.00685
30.1035,4.00742
30.1357,4.00228
30.1678,4.01084
30.2,4.00856
30.2322,4.00571
30.2643,4.0097
30.2965,4.00571
30.3287,4.0097
30.3608,4.00856
30.393,4.00685
30.4252,4.00571
30.4573,4.00742
30.4895,4.00571
30.5217,4.00799
30.5538,4.004
30.586,4.01084
30.6181,4.01142
30.6503,4.01313
30.6825,4.00685
30.7146,4.01142
30.7468,4.00685
30.7789,4.00913
30.811,4.01027
30.8432,4.0097
30.8753,4.01541
30.9075,4.00685
30.9396,4.00571
30.9717,4.00685
31.0039,4.00799
31.036,4.00742
31.0681,4.00856
31.1002,4.00799
31.1323,4.0097
31.1645,4.01541
31.1966,4.00514
31.2287,4.004
31.2608,4.00628
31.2929,4.00742
31.325,4.01313
31.3571,4.0097
31.3891,4.00856
31.4212,4.00742
31.4533,4.01256
31.4854,4.00856
31.5174,4.00571
31.5495,4.01313
31.5816,4.01142
31.6136,4.00856
31.6457,4.00856
31.6777,4.01199
31.7098,4.01084
31.7418,4.0137
31.7738,4.01199
31.8058,4.01598
31.8379,4.01598
31.8699,4.02283
31.9019,4.03995
31.9339,4.05765
31.9659,4.11701
31.9979,4.2597
32.0298,4.37842
32.0618,4.57363
32.0938,4.83276
32.1258,5
32.1577,4.98174
32.1897,4.71119
32.2216,4.47717
32.2535,4.44064
32.2855,4.28425
32.3174,4.16781
32.3493,4.07249
32.3812,4.02511
32.4131,4.02226
32.445,4.01712
32.4769,4.01712
32.5088,4.01655
32.5407,4.01256
32.5725,4.01199
32.6044,4.01484
32.6362,4.01256
32.6681,4.00799
32.6999,4.0097
32.7317,4.01427
32.7635,4.00742
32.7954,4.01084
32.8272,4.00799
32.8589,4.01142
32.8907,4.00856
32.9225,4.01027
32.9543,4.00628
32.986,4.01256
33.0178,4.00628
33.0495,4.0097
33.0812,4.01027
33.1129,4.00742
33.1447,4.01027
33.1764,4.004
33.208,4.00799
33.2397,4.00799
33.2714,4.01027
33.3031,4.01084
33.3347,4.00628
33.3663,4.00742
33.398,4.0097
33.4296,4.00685
33.4612,4.00685
33.4928,4.00799
33.5244,4.00856
33.556,4.00799
33.5875,4.00742
33.6191,4.00799
33.6506,4.00685
33.6821,4.00799
33.7137,4.00457
33.7452,4.00799
33.7767,4.00799
33.8082,4.01427
33.8396,4.00628
33.8711,4.00742
33.9026,4.00856
33.934,4.00856
33.9654,4.00742
33.9969,4.00685
34.0283,4.00685
34.0597,4.01084
34.0911,4.00742
34.1226,4.00457
34.154,4.00685
34.1854,4.01313
34.2168,4.00799
34.2482,4.01142
34.2796,4.00742
34.311,4.00913
34.3425,4.00799
34.3739,4.00628
34.4053,4.00742
34.4367,4.00913
34.4682,4.00742
34.4996,4.00628
34.5311,4.01084
34.5625,4.01941
34.594,4.01712
34.6255,4.03082
34.657,4.03653
34.6885,4.04909
34.72,4.09703
34.7516,4.17751
34.7831,4.27968
34.8147,4.33733
34.8463,4.46005
34.8779,4.58048
34.9095,4.62557
34.9411,4.47717
34.9728,4.24315
35.0045,4.1113
35.0362,4.04338
35.0679,4.02511
35.0997,4.01598
35.1315,4.01199
35.1633,4.01256
35.1951,4.01256
35.227,4.00799
35.2588,4.00685
35.2908,4.01256
35.3227,4.00685
35.3547,4.00856
35.3867,4.00856
35.4187,4.00799
35.4508,4.00342
35.4829,4.01027
35.5151,4.00514
35.5472,4.00856
35.5795,4.00514
35.6117,4.00685
35.644,4.00856
35.6763,4.00799
35.7087,4.01084
35.7411,4.00685
35.7736,4.01142
35.8061,4.01313
35.8386,4.01027
35.8712,4.0097
35.9039,4.00685
35.9366,4.01142
35.9693,4.00913
36.0021,4.01084
36.0349,4.00856
36.0677,4.00856
36.1006,4.00799
36.1335,4.01084
36.1665,4.00799
36.1995,4.0097
36.2325,4.01142
36.2655,4.01598
36.2986,4.01142
36.3317,4.01769
36.3648,4.0137
36.3979,4.01598
36.4311,4.02968
36.4643,4.05023
36.4974,4.07877
36.5306,4.09932
36.5638,4.14612
36.597,4.22374
36.6302,4.39555
36.6635,4.58505
36.6967,4.67751
36.7299,4.73174
36.7631,4.7226
36.7963,4.66495
36.8295,4.55422
36.8627,4.39269
36.8959,4.27226
36.9291,4.14155
36.9622,4.0782
36.9954,4.03881
37.0285,4.02283
37.0616,4.01884
37.0947,4.02226
37.1278,4.01484
37.1608,4.01427
37.1938,4.00628
37.2268,4.00913
37.2597,4.01256
37.2926,4.01313
37.3255,4.00799
37.3584,4.00685
37.3912,4.00856
37.4239,4.004
37.4566,4.00856
37.4893,4.00685
37.5219,4.01199
37.5545,4.00913
37.587,4.00856
37.6195,4.0097
37.6519,4.00799
37.6842,4.00742
37.7165,4.00571
37.7487,4.00742
37.7809,4.00742
37.813,4.00571
37.8451,4.00571
37.877,4.00514
37.9089,4.00628
37.9407,4.0097
37.9725,4.00742
38.0042,4.00628
38.0358,4.00856
38.0673,4.00799
38.0988,4.00913
38.1302,4.00457
38.1616,4.0097
38.1929,4.00285
38.2241,4.00628
38.2553,4.00285
38.2865,4.00571
38.3175,4.00742
38.3486,4.00799
38.3796,4.00342
38.4105,4.01313
38.4414,4.00742
38.4722,4.00685
38.503,4.00285
38.5338,4.00457
38.5645,4.00514
38.5952,4.00457
38.6258,4.00685
38.6565,4.00628
38.687,4.00685
38.7176,4.00742
38.7481,4.00571
38.7786,4.00856
38.8091,4.004
38.8395,4.00514
38.87,4.00514
38.9004,4.00457
38.9308,4.00571
38.9611,4.00685
38.9915,4.00856
39.0218,4.00514
39.0522,4.00742
39.0825,4.00514
39.1128,4.00571
39.1431,4.00457
39.1734,4.0097
39.2037,4.00742
39.234,4.00742
39.2643,4.00171
39.2946,4.004
39.325,4.00685
39.3553,4.00228
39.3856,4.00571
39.4159,4.00799
39.4463,4.00571
39.4766,4.00571
39.507,4.00514
39.5374,4.00457
39.5678,4.00514
39.5982,4.00571
39.6286,4.00457
39.6591,4.00514
39.6896,4.004
39.7201,4.00342
39.7507,4.004
39.7812,4.00342
39.8119,4.00571
39.8425,4.00342
39.8732,4.00457
39.9039,4.00742
39.9346,4.00799
39.9654,4.00457
39.9962,4.00514
40.0271,4.004
40.0579,4.00685
40.0888,4.004
40.1198,4.00342
40.1508,4.00285
40.1818,4.01027
40.2128,4.00799
40.2439,4.00514
40.275,4.00457
40.3061,4.00514
40.3373,4.00628
40.3685,4.00628
40.3997,4.00685
40.4309,4.00571
40.4622,4.00742
40.4935,4.00685
40.5249,4.00514
40.5562,4.00571
40.5876,4.00685
40.619,4.00514
40.6505,4.00514
40.6819,4.01142
40.7134,4.00685
40.745,4.00799
40.7765,4.00457
40.8081,4.00514
40.8397,4.004
40.8713,4.00913
40.903,4.00342
40.9346,4.00742
40.9663,4.00628
40.998,4.00228
41.0298,4.00628
41.0616,4.00628
41.0933,4.00342
41.1251,4.00628
41.157,4.00628
41.1888,4.00685
41.2207,4.00913
41.2526,4.00799
41.2845,4.00514
41.3164,4.00342
41.3484,4.00342
41.3804,4.00628
41.4123,4.00571
41.4444,4.00685
41.4764,4.004
41.5084,4.00457
41.5405,4.00285
41.5726,4.00571
41.6047,4.00856
41.6368,4.00457
41.6689,4.00514
41.701,4.00457
41.7332,4.00228
41.7654,4.004
41.7976,4.00628
41.8298,4.00285
41.862,4.00628
41.8942,4.00457
41.9265,4.004
41.9587,4.00742
41.991,4.004
42.0233,4.00457
42.0556,4.004
42.0879,4.00628
42.1202,4.00628
42.1526,4.00457
42.1849,4.00457
42.2173,4.00342
42.2496,4.00742
42.282,4.00342
42.3144,4.00457
42.3468,4.00514
42.3792,4.00342
42.4116,4.00685
42.444,4.00457
42.4764,4.00342
42.5089,4.00685
42.5413,4.00628
42.5738,4.00571
42.6062,4.00514
42.6387,4.00685
42.6711,4.00856
42.7036,4.00285
42.7361,4.00342
42.7686,4.00799
42.8011,4.00342
42.8336,4.00342
42.8661,4.00457
42.8986,4.00457
42.9311,4.00514
42.9636,4.00571
42.9961,4.00228
43.0286,4.00742
43.0611,4.00457
43.0936,4.00571
43.1261,4.00457
43.1587,4.00685
43.1912,4.00514
43.2237,4.00457
43.2562,4.00457
43.2887,4.00685
43.3213,4.004
43.3538,4.00171
43.3863,4.00685
43.4188,4.00628
43.4513,4.00628
43.4838,4.00285
43.5163,4.00342
43.5488,4.00685
43.5813,4.00228
43.6138,4.00514
43.6463,4.00514
43.6788,4.00514
43.7113,4.00685
43.7438,4.00571
43.7763,4.00457
43.8088,4.00685
43.8413,4.00856
43.8737,4.004
43.9062,4.00457
43.9387,4.00571
43.9712,4.00342
44.0036,4.00685
44.0361,4.00342
44.0685,4.00571
44.101,4.00457
44.1335,4.00514
44.1659,4.004
44.1984,4.00285
44.2308,4.00228
44.2632,4.00171
44.2957,4.00856
44.3281,4.00514
44.3606,4.00628
44.393,4.00571
44.4254,4.00342
44.4578,4.00457
44.4903,4.00742
44.5227,4.00514
44.5551,4.004
44.5875,4.00514
44.6199,4.00628
44.6523,4.004
44.6847,4.00571
44.7171,4.00285
44.7495,4.004
44.7819,4.00628
44.8143,4.00285
44.8467,4.00628
44.8791,4.00342
44.9115,4.00342
44.9438,4.00514
44.9762,4.004
45.0086,4.00457
45.041,4.00685
45.0733,4.00514
45.1057,4.00457
45.1381,4.00514
45.1704,4.00457
45.2028,4.00457
45.2351,4.00514
45.2675,4.00457
45.2998,4.00285
45.3321,4.00571
45.3645,4.00285
45.3968,4.00571
45.4292,4.00685
45.4615,4.004
45.4938,4.00342
45.5261,4.00514
45.5585,4.00342
45.5908,4.00228
45.6231,4.00571
45.6554,4.00628
45.6877,4.00571
45.72,4.00228
45.7523,4.00571
45.7846,4.00228
45.8169,4.00514
45.8492,4.00285
45.8815,4.00571
45.9137,4.004
45.946,4.00571
45.9783,4.00285
46.0106,4.00342
46.0428,4.00685
46.0751,4.00628
46.1074,4.00457
46.1396,4.00228
46.1719,4.00514
46.2041,4.00342
46.2364,4.00514
46.2686,4.00628
46.3009,4.00285
46.3331,4.004
46.3654,4.00457
46.3976,4.00342
46.4298,4.00457
46.462,4.00628
46.4943,4.00285
46.5265,4.00228
46.5587,4.00685
46.5909,4.00685
46.6231,4.00171
46.6553,4.00571
46.6875,4.004
46.7197,4.00285
46.7519,4.00457
46.7841,4.00342
46.8163,4.00514
46.8485,4.00628
46.8807,4.004
46.9128,4.00342
46.945,4.00228
46.9772,4.00742
47.0094,4.00514
47.0415,4.00057
47.0737,4.00514
47.1058,4.00285
47.138,4.00685
47.1701,4.00571
47.2023,4.004
47.2344,4.00856
47.2666,4.00685
47.2987,4.004
47.3308,4.00342
47.3629,4.00457
47.3951,4.00571
47.4272,4.00685
47.4593,4.00342
47.4914,4.00799
47.5235,4.00628
47.5556,4.00514
47.5877,4.00457
47.6198,4.00342
47.6519,4.00571
47.684,4.00571
47.7161,4.00342
47.7482,4.00742
47.7803,4.00799
47.8123,4.00856
47.8444,4.01084
47.8765,4.01084
47.9085,4.01484
47.9406,4.02112
47.9726,4.01884
48.0047,4.02169
48.0367,4.03311
48.0688,4.07249
48.1008,4.11016
48.1329,4.15011
48.1649,4.16096
48.1969,4.12728
48.229,4.10103
48.261,4.09247
48.293,4.08619
48.325,4.06963
48.357,4.0645
48.389,4.03139
48.421,4.01769
48.453,4.01998
48.485,4.01484
48.517,4.00856
48.549,4.01027
48.581,4.00514
48.613,4.00571
48.6449,4.00514
48.6769,4.0097
48.7089,4.00628
48.7408,4.00285
48.7728,4.00628
48.8048,4.00571
48.8367,4.00799
48.8687,4.00457
48.9006,4.00285
48.9326,4.00514
48.9645,4.00228
48.9964,4.00514
49.0284,4.00171
49.0603,4.00514
49.0922,4.00457
49.1242,4.004
49.1561,4.004
49.188,4.004
49.22,4.00571
49.2519,4.00457
49.2838,4.00628
49.3157,4.00171
49.3476,4.00742
49.3795,4.00285
49.4115,4.00285
49.4434,4.00342
49.4753,4.004
49.5072,4.00685
49.5391,4.00457
49.571,4.00685
49.6029,4.00571
49.6348,4.00799
49.6667,4.004
49.6986,4.00514
49.7305,4.00342
49.7624,4.00171
49.7943,4.00514
49.8262,4.00342
49.8581,4.00628
49.89,4.00514
49.9219,4.00913
49.9538,4.00628
49.9857,4.00457
50.0176,4.00228
50.0495,4.00285
50.0814,4.00285
50.1133,4.00457
50.1452,4.00342
50.1771,4.00342
50.209,4.00342
50.241,4.00342
50.2729,4.00171
50.3048,4.00228
50.3367,4.00571
50.3686,4.00114
50.4005,4.00457
50.4324,4.00342
50.4643,4.00457
50.4962,4.00342
50.5282,4.00571
50.5601,4.00342
50.592,4.00571
50.6239,4.00285
50.6558,4.00571
50.6878,4.00742
50.7197,4.00285
50.7516,4.004
50.7836,4.00342
50.8155,4.00171
50.8474,4.00285
50.8794,4.00285
50.9113,4.00228
50.9433,4.00342
50.9752,4.00342
51.0072,4.00514
51.0391,4.00571
51.0711,4.00285
51.103,4.00457
51.135,4.00228
51.167,4.00742
51.1989,4.00285
51.2309,4.004
51.2629,4.004
51.2949,4.00171
51.3269,4.00514
51.3589,4.00457
51.3909,4.00628
51.4229,4.00342
51.4549,4.00228
51.4869,4.00228
51.5189,4.00342
51.5509,4.00457
51.5829,4.00742
51.615,4.00457
51.647,4.00457
51.679,4.004
51.7111,4.00171
51.7431,4.00628
51.7752,4.00285
51.8072,4.004
51.8393,4.00742
51.8714,4.004
51.9034,4.00342
51.9355,4.00514
51.9676,4.00285
51.9997,4.004
52.0318,4.00571
52.0639,4.00628
52.096,4.004
52.1281,4.00342
52.1602,4.00285
52.1924,4.00342
52.2245,4.004
52.2566,4.004
52.2888,4.004
52.3209,4.00285
52.3531,4.004
52.3853,4.00342
52.4174,4.00457
52.4496,4.00342
52.4818,4.00457
52.514,4.004
52.5462,4.00342
52.5784,4.00342
52.6106,4.00514
52.6429,4.00514
52.6751,4.00228
52.7074,4.00571
52.7396,4.004
52.7719,4.00342
52.8041,4.00342
52.8364,4.00571
52.8687,4.00342
52.901,4.00571
52.9333,4.00514
52.9656,4.00285
52.9979,4.004
53.0302,4.00342
53.0626,4.00742
53.0949,4.00171
53.1273,4.00285
53.1596,4.00285
53.192,4.00228
53.2244,4.004
53.2568,4.00171
53.2892,4.00457
53.3216,4.00114
53.354,4.00685
53.3864,4.00342
53.4188,4.00171
53.4513,4.00571
53.4837,4.00457
53.5162,4.00571
53.5486,4.00514
53.5811,4.00228
53.6136,4.00457
53.646,4.00285
53.6785,4.00342
53.711,4.004
53.7435,4.00685
53.776,4.00571
53.8085,4.00342
53.841,4.00514
53.8735,4.00571
53.906,4.004
53.9385,4.00742
53.971,4.00457
54.0035,4.00457
54.036,4.00228
54.0685,4.00285
54.101,4.00342
54.1335,4.00228
54.166,4.00342
54.1985,4.004
54.231,4.00171
54.2635,4.004
54.296,4.00514
54.3285,4.004
54.361,4.00514
54.3935,4.00571
54.426,4.00342
54.4585,4.00514
54.491,4.00285
54.5234,4.00285
54.5559,4.00913
54.5884,4.00457
54.6209,4.00285
54.6533,4.00342
54.6858,4.004
54.7182,4.00628
54.7506,4.00514
54.7831,4.00171
54.8155,4.00228
54.8479,4.00057
54.8803,4.00457
54.9127,4.00457
54.9451,4.00171
54.9775,4.00342
55.0098,4.004
55.0422,4.00457
55.0746,4.004
55.1069,4.00457
55.1392,4.00171
55.1715,4.00285
55.2038,4.00342
55.2361,4.00342
55.2684,4.00285
55.3007,4.004
55.3329,4.00342
55.3652,4.00285
55.3974,4.00685
55.4296,4.004
55.4618,4.00514
55.494,4.00571
55.5262,4.00285
55.5583,4.004
55.5905,4.00742
55.6226,4.00457
55.6547,4.00228
55.6868,4.004
55.7189,4.00514
55.7509,4.00171
55.7829,4.00514
55.815,4.004
55.847,4.00285
55.8789,4.00342
55.9109,4.00457
55.9428,4.00457
55.9748,4.00342
56.0067,4.00228
56.0385,4.00057
56.0704,4.00171
56.1022,4.00571
56.134,4.00285
56.1658,4.00342
56.1976,4.004
56.2294,4.00114
56.2611,4.00457
56.2928,4.00342
56.3245,4.00571
56.3561,4.00228
56.3878,4.00628
56.4194,4.00228
56.451,4.00571
56.4826,4.00342
56.5142,4.00514
56.5457,4.00514
56.5772,4.00514
56.6087,4.00285
56.6402,4.00571
56.6717,4.00457
56.7032,4.00342
56.7346,4.00628
56.7661,4.00457
56.7975,4.00457
56.8289,4.00856
56.8603,4.00799
56.8917,4.00685
56.923,4.00913
56.9544,4.00685
56.9857,4.01598
57.0171,4.01313
57.0484,4.01655
57.0797,4.01826
57.111,4.02797
57.1423,4.03196
57.1735,4.03824
57.2048,4.04338
57.2361,4.06678
57.2673,4.08847
57.2986,4.11416
57.3298,4.14384
57.361,4.14212
57.3922,4.10959
57.4235,4.08961
57.4547,4.08733
57.4859,4.06963
57.5171,4.05251
57.5483,4.05479
57.5795,4.05822
57.6106,4.05993
57.6418,4.05993
57.673,4.03311
57.7042,4.02454
57.7354,4.0274
57.7665,4.00856
57.7977,4.00913
57.8289,4.00457
57.8601,4.00799
57.8913,4.00628
57.9225,4.00342
57.9537,4.00514
57.9849,4.004
58.0161,4.004
58.0473,4.00685
58.0785,4.00285
58.1097,4.00285
58.141,4.00571
58.1722,4.004
58.2035,4.004
58.2347,4.00571
58.266,4.00514
58.2973,4.004
58.3286,4.00457
58.36,4.00457
58.3913,4.00571
58.4227,4.004
58.454,4.004
58.4854,4.00342
58.5168,4.004
58.5483,4.00571
58.5797,4.00514
58.6112,4.004
58.6427,4.00628
58.6742,4.004
58.7058,4.00457
58.7373,4.004
58.7689,4.00285
58.8005,4.00628
58.8322,4.00457
58.8638,4.00285
58.8955,4.00285
58.9273,4.00457
58.959,4.00228
58.9908,4.00342
59.0227,4.00285
59.0545,4.00285
59.0864,4.004
59.1183,4.00457
59.1503,4.00457
59.1822,4.00285
59.2143,4.00228
59.2463,4.00342
59.2783,4.00457
59.3104,4.00628
59.3425,4.00285
59.3746,4.00285
59.4068,4.004
59.4389,4.00342
59.4711,4.00285
59.5033,4.00342
59.5355,4.00171
59.5677,4.00342
59.6,4.00285
59.6322,4.00799
59.6645,4.00228
59.6967,4.00342
59.729,4.00342
59.7613,4.00171
59.7935,4.00342
59.8258,4.00228
59.8581,4.004
59.8904,4.00685
59.9227,4.00342
59.9549,4.00285
59.9872,4.00342
60.0195,4.00571
60.0517,4.00285
60.084,4.00514
60.1162,4.00114
60.1485,4.00457
60.1807,4.00571
60.2129,4.00571
60.2451,4.00114
60.2773,4.00514
60.3095,4.00171
60.3416,4.00457
60.3738,4.00571
60.4059,4.00514
60.438,4.00742
60.47,4.00342
60.5021,4.00285
60.5341,4.00514
60.5661,4.00571
60.5981,4.00571
60.6301,4.00285
60.6621,4.00342
60.694,4.00228
60.7259,4.00457
60.7579,4.004
60.7898,4.004
60.8217,4.00342
60.8536,4.00285
60.8855,4.00514
60.9174,4.00285
60.9493,4.00685
60.9812,4.00457
61.0131,4.00457
61.045,4.00514
61.0769,4.004
61.1088,4.00342
61.1407,4.00228
61.1727,4.00457
61.2046,4.00742
61.2366,4.00742
61.2685,4.00628
61.3005,4.00685
61.3325,4.00228
61.3645,4.00057
61.3965,4.00628
61.4286,4.00457
61.4606,4.00171
61.4927,4.00628
61.5248,4.004
61.557,4.00285
61.5891,4.00457
61.6213,4.00228
61.6535,4.00342
61.6858,4.00285
61.7181,4.00285
61.7504,4.00342
61.7828,4.00285
61.8152,4.00342
61.8476,4.00228
61.8801,4.00285
61.9126,4.00171
61.9451,4.00228
61.9777,4.00228
62.0103,4.00457
62.0429,4.00457
62.0756,4.004
62.1083,4.00685
62.1411,4.00114
62.1738,4.00285
62.2066,4.00457
62.2395,4.00457
62.2723,4.00342
62.3052,4.00228
62.3381,4.004
62.371,4.00571
62.404,4.00342
62.437,4.00457
62.47,4.00742
62.503,4.00342
62.536,4.00628
62.5691,4.00342
62.6022,4.00457
62.6353,4.00514
62.6684,4.00285
62.7015,4.004
62.7347,4.00514
62.7678,4.00571
62.801,4.004
62.8342,4.00342
62.8674,4.00457
62.9006,4.00342
62.9338,4.00228
62.967,4.00514
63.0003,4.00171
63.0335,4.00285
63.0668,4.00685
63.1,4.00457
63.1333,4.004
63.1666,4.00628
63.1998,4.00457
63.2331,4.00628
63.2664,4.00628
63.2997,4.00856
63.333,4.0097
63.3662,4.0097
63.3995,4.01484
63.4328,4.01541
63.466,4.01826
63.4993,4.0234
63.5326,4.02568
63.5658,4.03196
63.5991,4.03196
63.6323,4.05023
63.6655,4.07534
63.6988,4.12614
63.732,4.15411
63.7652,4.17466
63.7984,4.11758
63.8315,4.10902
63.8647,4.10331
63.8978,4.08276
63.931,4.04795
63.9641,4.04452
63.9972,4.03425
64.0303,4.03082
64.0633,4.03482
64.0964,4.01826
64.1294,4.01655
64.1624,4.0137
64.1953,4.0097
64.2283,4.0137
64.2612,4.00799
64.2941,4.00457
64.327,4.00571
64.3599,4.00799
64.3927,4.004
64.4255,4.004
64.4582,4.00628
64.491,4.00571
64.5237,4.00742
64.5563,4.00628
64.589,4.004
64.6216,4.00514
64.6542,4.00457
64.6867,4.00342
64.7192,4.00228
64.7517,4.00228
64.7842,4.00514
64.8166,4.00742
64.849,4.00628
64.8814,4.00285
64.9137,4.00342
64.946,4.004
64.9783,4.00171
65.0105,4.00285
65.0428,4.004
65.075,4.00171
65.1071,4.00228
65.1393,4.004
65.1714,4.00628
65.2035,4.00228
65.2355,4.00628
65.2676,4.00228
65.2996,4.00228
65.3315,4.004
65.3635,4.00228
65.3954,4.00571
65.4273,4.004
65.4592,4.00571
65.4911,4.004
65.5229,4.00228
65.5547,4.00114
65.5865,4.00342
65.6182,4.00514
65.6499,4.00228
65.6817,4.00514
65.7133,4.00342
65.745,4.004
65.7766,4.00285
65.8083,4.00228
65.8398,4.00571
65.8714,4.00628
65.903,4.004
65.9345,4.004
65.966,4.00285
65.9975,4.00685
66.0289,4.00228