File: projects/solarcell/xrd/XRD-new method/XRD/input data/sample3.csv
Angle,intensity
27.9833,2.1709
28.0153,2.18927
28.0474,2.16525
28.0795,2.17797
28.1115,2.16243
28.1436,2.16525
28.1756,2.15395
28.2077,2.18503
28.2398,2.1709
28.2718,2.18362
28.3039,2.16243
28.336,2.17938
28.3681,2.19068
28.4001,2.17797
28.4322,2.17655
28.4643,2.15254
28.4964,2.16525
28.5285,2.17373
28.5606,2.16102
28.5927,2.15678
28.6248,2.16808
28.6569,2.16243
28.689,2.1822
28.7211,2.18927
28.7532,2.14689
28.7853,2.15254
28.8174,2.19633
28.8495,2.16384
28.8816,2.17514
28.9137,2.17797
28.9458,2.14548
28.978,2.14266
29.0101,2.14548
29.0422,2.1596
29.0743,2.19209
29.1065,2.14548
29.1386,2.17514
29.1708,2.16949
29.2029,2.15678
29.235,2.15819
29.2672,2.17655
29.2993,2.1596
29.3315,2.19915
29.3636,2.16808
29.3958,2.15395
29.4279,2.17797
29.4601,2.14972
29.4923,2.1709
29.5244,2.17655
29.5566,2.16667
29.5887,2.15819
29.6209,2.14124
29.6531,2.1596
29.6852,2.17232
29.7174,2.16102
29.7496,2.16808
29.7818,2.17797
29.8139,2.1709
29.8461,2.14266
29.8783,2.14972
29.9104,2.13418
29.9426,2.15819
29.9748,2.16243
30.007,2.16384
30.0391,2.14689
30.0713,2.15395
30.1035,2.18644
30.1357,2.17514
30.1678,2.14689
30.2,2.15678
30.2322,2.14831
30.2643,2.15395
30.2965,2.13277
30.3287,2.13983
30.3608,2.17373
30.393,2.15819
30.4252,2.1596
30.4573,2.15537
30.4895,2.18785
30.5217,2.14548
30.5538,2.16102
30.586,2.16102
30.6181,2.17232
30.6503,2.14407
30.6825,2.17655
30.7146,2.1596
30.7468,2.17655
30.7789,2.17797
30.811,2.15254
30.8432,2.15537
30.8753,2.16667
30.9075,2.14124
30.9396,2.14266
30.9717,2.14407
31.0039,2.14407
31.036,2.17655
31.0681,2.14548
31.1002,2.13842
31.1323,2.16243
31.1645,2.13418
31.1966,2.14831
31.2287,2.16667
31.2608,2.15395
31.2929,2.12571
31.325,2.13701
31.3571,2.17655
31.3891,2.17373
31.4212,2.14266
31.4533,2.14407
31.4854,2.1596
31.5174,2.15113
31.5495,2.1822
31.5816,2.16808
31.6136,2.14548
31.6457,2.16102
31.6777,2.17655
31.7098,2.15395
31.7418,2.14407
31.7738,2.17514
31.8058,2.17938
31.8379,2.19915
31.8699,2.23446
31.9019,2.26836
31.9339,2.33475
31.9659,2.40819
31.9979,2.49718
32.0298,2.64124
32.0618,2.8178
32.0938,2.96469
32.1258,3
32.1577,2.85452
32.1897,2.64548
32.2216,2.36017
32.2535,2.21893
32.2855,2.20621
32.3174,2.14972
32.3493,2.16667
32.3812,2.13559
32.4131,2.16949
32.445,2.16808
32.4769,2.17514
32.5088,2.14831
32.5407,2.10169
32.5725,2.13559
32.6044,2.14266
32.6362,2.15819
32.6681,2.14407
32.6999,2.12288
32.7317,2.15113
32.7635,2.12429
32.7954,2.13701
32.8272,2.13136
32.8589,2.13277
32.8907,2.13418
32.9225,2.1596
32.9543,2.13701
32.986,2.13418
33.0178,2.1596
33.0495,2.13277
33.0812,2.13842
33.1129,2.14689
33.1447,2.12147
33.1764,2.14124
33.208,2.15678
33.2397,2.13842
33.2714,2.13701
33.3031,2.13136
33.3347,2.13559
33.3663,2.15537
33.398,2.15395
33.4296,2.13136
33.4612,2.13418
33.4928,2.14124
33.5244,2.10311
33.556,2.1309
33.5875,2.11514
33.6191,2.12525
33.6506,2.13678
33.6821,2.12243
33.7137,2.10763
33.7452,2.14266
33.7767,2.15395
33.8082,2.14407
33.8396,2.13559
33.8711,2.13559
33.9026,2.13842
33.934,2.12712
33.9654,2.13136
33.9969,2.13277
34.0283,2.11582
34.0597,2.13136
34.0911,2.12429
34.1226,2.13418
34.154,2.11864
34.1854,2.13701
34.2168,2.12288
34.2482,2.12853
34.2796,2.12712
34.311,2.13701
34.3425,2.11158
34.3739,2.11441
34.4053,2.13701
34.4367,2.15678
34.4682,2.12429
34.4996,2.10593
34.5311,2.12006
34.5625,2.15395
34.594,2.12712
34.6255,2.1596
34.657,2.20056
34.6885,2.22881
34.72,2.27401
34.7516,2.38701
34.7831,2.41384
34.8147,2.41525
34.8463,2.38983
34.8779,2.34605
34.9095,2.2952
34.9411,2.23446
34.9728,2.14266
35.0045,2.14266
35.0362,2.15113
35.0679,2.13136
35.0997,2.10593
35.1315,2.11723
35.1633,2.14407
35.1951,2.14548
35.227,2.11864
35.2588,2.11158
35.2908,2.12571
35.3227,2.11299
35.3547,2.12006
35.3867,2.12006
35.4187,2.13277
35.4508,2.12006
35.4829,2.12853
35.5151,2.12571
35.5472,2.12288
35.5795,2.12994
35.6117,2.12429
35.644,2.11299
35.6763,2.12147
35.7087,2.11864
35.7411,2.12571
35.7736,2.09605
35.8061,2.11158
35.8386,2.14548
35.8712,2.09746
35.9039,2.11582
35.9366,2.11723
35.9693,2.11723
36.0021,2.12147
36.0349,2.0904
36.0677,2.12288
36.1006,2.10452
36.1335,2.11864
36.1665,2.10876
36.1995,2.11723
36.2325,2.11441
36.2655,2.15113
36.2986,2.10311
36.3317,2.11582
36.3648,2.13136
36.3979,2.16384
36.4311,2.18079
36.4643,2.25
36.4974,2.29379
36.5306,2.35311
36.5638,2.50989
36.597,2.59463
36.6302,2.72034
36.6635,2.80932
36.6967,2.81356
36.7299,2.72599
36.7631,2.59463
36.7963,2.46328
36.8295,2.35734
36.8627,2.21893
36.8959,2.18927
36.9291,2.16102
36.9622,2.13842
36.9954,2.11864
37.0285,2.13418
37.0616,2.12712
37.0947,2.10028
37.1278,2.10452
37.1608,2.11299
37.1938,2.12429
37.2268,2.12994
37.2597,2.11441
37.2926,2.09746
37.3255,2.12288
37.3584,2.09463
37.3912,2.12429
37.4239,2.08333
37.4566,2.09887
37.4893,2.10452
37.5219,2.12147
37.5545,2.11158
37.587,2.12712
37.6195,2.09463
37.6519,2.11158
37.6842,2.10028
37.7165,2.09887
37.7487,2.11158
37.7809,2.10311
37.813,2.11441
37.8451,2.11017
37.877,2.10311
37.9089,2.08051
37.9407,2.12147
37.9725,2.08616
38.0042,2.11017
38.0358,2.09463
38.0673,2.07627
38.0988,2.10169
38.1302,2.11723
38.1616,2.10876
38.1929,2.10311
38.2241,2.07627
38.2553,2.09605
38.2865,2.09746
38.3175,2.09605
38.3486,2.10593
38.3796,2.09746
38.4105,2.08051
38.4414,2.10593
38.4722,2.09746
38.503,2.09746
38.5338,2.11582
38.5645,2.12147
38.5952,2.09463
38.6258,2.11441
38.6565,2.11299
38.687,2.10734
38.7176,2.09463
38.7481,2.08898
38.7786,2.10169
38.8091,2.08475
38.8395,2.10452
38.87,2.10734
38.9004,2.09605
38.9308,2.09181
38.9611,2.10734
38.9915,2.13136
39.0218,2.10028
39.0522,2.11158
39.0825,2.09746
39.1128,2.10169
39.1431,2.10028
39.1734,2.0904
39.2037,2.09463
39.234,2.08333
39.2643,2.09887
39.2946,2.10876
39.325,2.10169
39.3553,2.08051
39.3856,2.09322
39.4159,2.07627
39.4463,2.10593
39.4766,2.08898
39.507,2.09887
39.5374,2.08333
39.5678,2.10452
39.5982,2.10311
39.6286,2.08192
39.6591,2.11017
39.6896,2.08898
39.7201,2.08051
39.7507,2.08192
39.7812,2.09887
39.8119,2.09605
39.8425,2.09605
39.8732,2.09322
39.9039,2.08192
39.9346,2.09887
39.9654,2.09887
39.9962,2.10593
40.0271,2.10593
40.0579,2.11017
40.0888,2.09605
40.1198,2.10452
40.1508,2.09887
40.1818,2.08898
40.2128,2.07627
40.2439,2.09322
40.275,2.10311
40.3061,2.09605
40.3373,2.10593
40.3685,2.08051
40.3997,2.10876
40.4309,2.11864
40.4622,2.10593
40.4935,2.09887
40.5249,2.09322
40.5562,2.08616
40.5876,2.08616
40.619,2.09605
40.6505,2.08757
40.6819,2.09181
40.7134,2.08051
40.745,2.09746
40.7765,2.10311
40.8081,2.10028
40.8397,2.09322
40.8713,2.09887
40.903,2.07203
40.9346,2.07486
40.9663,2.10028
40.998,2.08757
41.0298,2.08051
41.0616,2.08757
41.0933,2.08616
41.1251,2.10169
41.157,2.10169
41.1888,2.11441
41.2207,2.08616
41.2526,2.07627
41.2845,2.09322
41.3164,2.08898
41.3484,2.09887
41.3804,2.0791
41.4123,2.10734
41.4444,2.08757
41.4764,2.11864
41.5084,2.12571
41.5405,2.09463
41.5726,2.07627
41.6047,2.10169
41.6368,2.07203
41.6689,2.0791
41.701,2.09322
41.7332,2.10169
41.7654,2.08192
41.7976,2.10028
41.8298,2.08051
41.862,2.08898
41.8942,2.09322
41.9265,2.09322
41.9587,2.08616
41.991,2.07768
42.0233,2.08898
42.0556,2.06497
42.0879,2.09463
42.1202,2.09746
42.1526,2.09322
42.1849,2.08475
42.2173,2.10876
42.2496,2.08192
42.282,2.07203
42.3144,2.09463
42.3468,2.08757
42.3792,2.09605
42.4116,2.0904
42.444,2.07627
42.4764,2.09605
42.5089,2.07345
42.5413,2.10734
42.5738,2.09887
42.6062,2.11017
42.6387,2.09887
42.6711,2.09887
42.7036,2.09746
42.7361,2.08757
42.7686,2.10169
42.8011,2.09463
42.8336,2.08475
42.8661,2.08898
42.8986,2.0791
42.9311,2.09181
42.9636,2.09605
42.9961,2.08757
43.0286,2.09463
43.0611,2.07345
43.0936,2.09181
43.1261,2.08333
43.1587,2.07203
43.1912,2.10169
43.2237,2.09746
43.2562,2.08898
43.2887,2.10169
43.3213,2.10169
43.3538,2.09887
43.3863,2.07486
43.4188,2.08192
43.4513,2.08333
43.4838,2.09605
43.5163,2.08757
43.5488,2.09463
43.5813,2.11299
43.6138,2.09181
43.6463,2.08192
43.6788,2.0904
43.7113,2.09322
43.7438,2.08616
43.7763,2.08192
43.8088,2.08475
43.8413,2.06921
43.8737,2.09746
43.9062,2.07062
43.9387,2.09746
43.9712,2.08475
44.0036,2.07062
44.0361,2.06921
44.0685,2.07768
44.101,2.09746
44.1335,2.06356
44.1659,2.09322
44.1984,2.09322
44.2308,2.07627
44.2632,2.0678
44.2957,2.08051
44.3281,2.08475
44.3606,2.08475
44.393,2.0791
44.4254,2.08898
44.4578,2.06638
44.4903,2.08616
44.5227,2.07345
44.5551,2.08616
44.5875,2.09322
44.6199,2.0904
44.6523,2.0791
44.6847,2.10593
44.7171,2.07345
44.7495,2.08333
44.7819,2.0904
44.8143,2.09463
44.8467,2.09463
44.8791,2.10311
44.9115,2.10028
44.9438,2.07768
44.9762,2.07345
45.0086,2.07768
45.041,2.0791
45.0733,2.09463
45.1057,2.10311
45.1381,2.08051
45.1704,2.07768
45.2028,2.08333
45.2351,2.09181
45.2675,2.07768
45.2998,2.0904
45.3321,2.09463
45.3645,2.0791
45.3968,2.08192
45.4292,2.08475
45.4615,2.08616
45.4938,2.0904
45.5261,2.08475
45.5585,2.07345
45.5908,2.08192
45.6231,2.09746
45.6554,2.08757
45.6877,2.06921
45.72,2.08757
45.7523,2.08475
45.7846,2.07627
45.8169,2.08333
45.8492,2.09463
45.8815,2.07486
45.9137,2.08616
45.946,2.09746
45.9783,2.07768
46.0106,2.11017
46.0428,2.10311
46.0751,2.06921
46.1074,2.08475
46.1396,2.05791
46.1719,2.07062
46.2041,2.07486
46.2364,2.07486
46.2686,2.08051
46.3009,2.06921
46.3331,2.08616
46.3654,2.0678
46.3976,2.09181
46.4298,2.08333
46.462,2.08333
46.4943,2.08475
46.5265,2.08475
46.5587,2.07627
46.5909,2.09746
46.6231,2.08051
46.6553,2.0678
46.6875,2.08757
46.7197,2.07768
46.7519,2.08051
46.7841,2.08475
46.8163,2.07203
46.8485,2.10452
46.8807,2.08333
46.9128,2.08333
46.945,2.0904
46.9772,2.07627
47.0094,2.05791
47.0415,2.09887
47.0737,2.10169
47.1058,2.10169
47.138,2.09887
47.1701,2.07486
47.2023,2.08192
47.2344,2.08333
47.2666,2.09605
47.2987,2.08757
47.3308,2.09463
47.3629,2.11299
47.3951,2.09181
47.4272,2.08192
47.4593,2.0904
47.4914,2.09322
47.5235,2.08616
47.5556,2.07486
47.5877,2.08757
47.6198,2.08757
47.6519,2.06497
47.684,2.08475
47.7161,2.08051
47.7482,2.07486
47.7803,2.08475
47.8123,2.07627
47.8444,2.0791
47.8765,2.08333
47.9085,2.07345
47.9406,2.09463
47.9726,2.0904
48.0047,2.10452
48.0367,2.13418
48.0688,2.14266
48.1008,2.13136
48.1329,2.14689
48.1649,2.15113
48.1969,2.19209
48.229,2.17938
48.261,2.19209
48.293,2.15678
48.325,2.14124
48.357,2.15113
48.389,2.12006
48.421,2.10169
48.453,2.08333
48.485,2.07627
48.517,2.08616
48.549,2.08051
48.581,2.10028
48.613,2.08333
48.6449,2.08051
48.6769,2.06638
48.7089,2.08475
48.7408,2.08051
48.7728,2.10452
48.8048,2.07768
48.8367,2.08051
48.8687,2.08192
48.9006,2.06921
48.9326,2.08192
48.9645,2.06638
48.9964,2.07345
49.0284,2.08051
49.0603,2.07062
49.0922,2.08051
49.1242,2.09181
49.1561,2.08051
49.188,2.08051
49.22,2.09322
49.2519,2.08333
49.2838,2.07627
49.3157,2.05791
49.3476,2.08898
49.3795,2.08616
49.4115,2.06215
49.4434,2.08616
49.4753,2.0791
49.5072,2.0791
49.5391,2.04802
49.571,2.0678
49.6029,2.07486
49.6348,2.07486
49.6667,2.07345
49.6986,2.08192
49.7305,2.07345
49.7624,2.07345
49.7943,2.08192
49.8262,2.07062
49.8581,2.06215
49.89,2.08333
49.9219,2.0565
49.9538,2.09887
49.9857,2.08616
50.0176,2.07768
50.0495,2.07627
50.0814,2.07345
50.1133,2.07345
50.1452,2.06921
50.1771,2.06921
50.209,2.07768
50.241,2.07062
50.2729,2.0678
50.3048,2.07062
50.3367,2.07768
50.3686,2.0904
50.4005,2.07062
50.4324,2.07345
50.4643,2.05367
50.4962,2.06356
50.5282,2.08051
50.5601,2.06215
50.592,2.07345
50.6239,2.0678
50.6558,2.06073
50.6878,2.08051
50.7197,2.08333
50.7516,2.06638
50.7836,2.06638
50.8155,2.0678
50.8474,2.07768
50.8794,2.06497
50.9113,2.06073
50.9433,2.07768
50.9752,2.07345
51.0072,2.06215
51.0391,2.07203
51.0711,2.07345
51.103,2.06921
51.135,2.07768
51.167,2.0904
51.1989,2.07627
51.2309,2.07062
51.2629,2.07768
51.2949,2.05508
51.3269,2.06497
51.3589,2.05226
51.3909,2.07627
51.4229,2.07203
51.4549,2.06497
51.4869,2.08051
51.5189,2.09605
51.5509,2.07486
51.5829,2.06356
51.615,2.08051
51.647,2.08051
51.679,2.06356
51.7111,2.08192
51.7431,2.07345
51.7752,2.07345
51.8072,2.07345
51.8393,2.0791
51.8714,2.08051
51.9034,2.06497
51.9355,2.08475
51.9676,2.0678
51.9997,2.07486
52.0318,2.06921
52.0639,2.09181
52.096,2.07627
52.1281,2.08333
52.1602,2.06497
52.1924,2.07768
52.2245,2.06497
52.2566,2.06356
52.2888,2.05791
52.3209,2.09181
52.3531,2.0565
52.3853,2.06356
52.4174,2.06921
52.4496,2.06497
52.4818,2.05367
52.514,2.07203
52.5462,2.06215
52.5784,2.0678
52.6106,2.07203
52.6429,2.07203
52.6751,2.08333
52.7074,2.06497
52.7396,2.06638
52.7719,2.07203
52.8041,2.07062
52.8364,2.0678
52.8687,2.07768
52.901,2.0678
52.9333,2.06497
52.9656,2.06356
52.9979,2.07203
53.0302,2.08616
53.0626,2.06921
53.0949,2.08898
53.1273,2.06356
53.1596,2.06638
53.192,2.07062
53.2244,2.06638
53.2568,2.06356
53.2892,2.06921
53.3216,2.08475
53.354,2.06638
53.3864,2.08333
53.4188,2.07345
53.4513,2.05367
53.4837,2.0678
53.5162,2.05226
53.5486,2.0678
53.5811,2.07627
53.6136,2.0904
53.646,2.07062
53.6785,2.07627
53.711,2.08192
53.7435,2.05367
53.776,2.08051
53.8085,2.05367
53.841,2.06638
53.8735,2.0452
53.906,2.05932
53.9385,2.05932
53.971,2.07345
54.0035,2.08192
54.036,2.05085
54.0685,2.06497
54.101,2.0678
54.1335,2.06356
54.166,2.08475
54.1985,2.07203
54.231,2.09463
54.2635,2.06215
54.296,2.05085
54.3285,2.06497
54.361,2.0791
54.3935,2.06497
54.426,2.0565
54.4585,2.06497
54.491,2.08333
54.5234,2.08475
54.5559,2.05508
54.5884,2.06215
54.6209,2.06073
54.6533,2.08475
54.6858,2.0678
54.7182,2.0678
54.7506,2.07768
54.7831,2.08616
54.8155,2.07203
54.8479,2.05367
54.8803,2.05791
54.9127,2.08898
54.9451,2.07203
54.9775,2.07486
55.0098,2.06073
55.0422,2.06921
55.0746,2.08757
55.1069,2.08757
55.1392,2.0678
55.1715,2.10452
55.2038,2.06921
55.2361,2.06356
55.2684,2.06497
55.3007,2.07345
55.3329,2.08051
55.3652,2.06356
55.3974,2.06921
55.4296,2.07768
55.4618,2.06497
55.494,2.06073
55.5262,2.06356
55.5583,2.06356
55.5905,2.06215
55.6226,2.07627
55.6547,2.06215
55.6868,2.05085
55.7189,2.06921
55.7509,2.0678
55.7829,2.0678
55.815,2.06497
55.847,2.06215
55.8789,2.07627
55.9109,2.05791
55.9428,2.03955
55.9748,2.06356
56.0067,2.07486
56.0385,2.05791
56.0704,2.06638
56.1022,2.07768
56.134,2.07768
56.1658,2.07486
56.1976,2.07345
56.2294,2.06073
56.2611,2.06497
56.2928,2.07062
56.3245,2.07345
56.3561,2.05508
56.3878,2.06497
56.4194,2.06215
56.451,2.06215
56.4826,2.06073
56.5142,2.06638
56.5457,2.08757
56.5772,2.07768
56.6087,2.08475
56.6402,2.07203
56.6717,2.06638
56.7032,2.06215
56.7346,2.0904
56.7661,2.08616
56.7975,2.08616
56.8289,2.10169
56.8603,2.11158
56.8917,2.13418
56.923,2.15113
56.9544,2.18362
56.9857,2.21328
57.0171,2.23446
57.0484,2.30791
57.0797,2.26271
57.111,2.28955
57.1423,2.24011
57.1735,2.25282
57.2048,2.22175
57.2361,2.15537
57.2673,2.14124
57.2986,2.14972
57.3298,2.0904
57.361,2.10734
57.3922,2.09746
57.4235,2.07627
57.4547,2.08475
57.4859,2.09463
57.5171,2.08757
57.5483,2.06497
57.5795,2.06921
57.6106,2.0791
57.6418,2.07627
57.673,2.06073
57.7042,2.07062
57.7354,2.08333
57.7665,2.0565
57.7977,2.06356
57.8289,2.06215
57.8601,2.08616
57.8913,2.0678
57.9225,2.06356
57.9537,2.06497
57.9849,2.07627
58.0161,2.07062
58.0473,2.0565
58.0785,2.07345
58.1097,2.07768
58.141,2.07345
58.1722,2.07768
58.2035,2.06356
58.2347,2.06921
58.266,2.05791
58.2973,2.07345
58.3286,2.06073
58.36,2.0678
58.3913,2.07768
58.4227,2.07062
58.454,2.07062
58.4854,2.07627
58.5168,2.07203
58.5483,2.05508
58.5797,2.05367
58.6112,2.06073
58.6427,2.07203
58.6742,2.0565
58.7058,2.0678
58.7373,2.07627
58.7689,2.04944
58.8005,2.06497
58.8322,2.07486
58.8638,2.08757
58.8955,2.05791
58.9273,2.07345
58.959,2.05932
58.9908,2.0678
59.0227,2.0678
59.0545,2.0678
59.0864,2.05932
59.1183,2.07486
59.1503,2.06921
59.1822,2.06356
59.2143,2.05508
59.2463,2.06921
59.2783,2.05791
59.3104,2.08051
59.3425,2.05508
59.3746,2.06921
59.4068,2.0678
59.4389,2.06638
59.4711,2.06497
59.5033,2.06497
59.5355,2.06215
59.5677,2.08051
59.6,2.06073
59.6322,2.06356
59.6645,2.0565
59.6967,2.05932
59.729,2.05226
59.7613,2.04661
59.7935,2.0791
59.8258,2.06073
59.8581,2.08757
59.8904,2.06215
59.9227,2.05791
59.9549,2.10169
59.9872,2.05791
60.0195,2.07486
60.0517,2.0678
60.084,2.06497
60.1162,2.05932
60.1485,2.07203
60.1807,2.06356
60.2129,2.07345
60.2451,2.07062
60.2773,2.07203
60.3095,2.07768
60.3416,2.05932
60.3738,2.07345
60.4059,2.07486
60.438,2.07203
60.47,2.07345
60.5021,2.07345
60.5341,2.05226
60.5661,2.06356
60.5981,2.08616
60.6301,2.06497
60.6621,2.06497
60.694,2.06638
60.7259,2.04802
60.7579,2.07627
60.7898,2.0565
60.8217,2.06073
60.8536,2.07062
60.8855,2.06356
60.9174,2.06356
60.9493,2.0565
60.9812,2.06497
61.0131,2.06921
61.045,2.08475
61.0769,2.0565
61.1088,2.07768
61.1407,2.07062
61.1727,2.06356
61.2046,2.05367
61.2366,2.07345
61.2685,2.05085
61.3005,2.06638
61.3325,2.06497
61.3645,2.06497
61.3965,2.06356
61.4286,2.05367
61.4606,2.07345
61.4927,2.07062
61.5248,2.05508
61.557,2.05367
61.5891,2.05791
61.6213,2.07486
61.6535,2.06356
61.6858,2.06921
61.7181,2.06073
61.7504,2.06921
61.7828,2.0791
61.8152,2.06921
61.8476,2.07203
61.8801,2.05932
61.9126,2.06073
61.9451,2.08757
61.9777,2.06921
62.0103,2.07768
62.0429,2.0565
62.0756,2.06215
62.1083,2.0791
62.1411,2.07345
62.1738,2.07486
62.2066,2.06497
62.2395,2.0565
62.2723,2.05226
62.3052,2.07486
62.3381,2.0678
62.371,2.07345
62.404,2.0565
62.437,2.08475
62.47,2.07486
62.503,2.05085
62.536,2.07203
62.5691,2.06356
62.6022,2.07768
62.6353,2.08192
62.6684,2.0565
62.7015,2.0565
62.7347,2.07627
62.7678,2.0791
62.801,2.07203
62.8342,2.0678
62.8674,2.06638
62.9006,2.0565
62.9338,2.06356
62.967,2.05791
63.0003,2.04802
63.0335,2.06356
63.0668,2.06356
63.1,2.08051
63.1333,2.07486
63.1666,2.0565
63.1998,2.05508
63.2331,2.06921
63.2664,2.06497
63.2997,2.06497
63.333,2.06073
63.3662,2.05367
63.3995,2.08333
63.4328,2.07203
63.466,2.0678
63.4993,2.06638
63.5326,2.07062
63.5658,2.06921
63.5991,2.11158
63.6323,2.10452
63.6655,2.13136
63.6988,2.16667
63.732,2.14831
63.7652,2.14407
63.7984,2.16525
63.8315,2.15819
63.8647,2.14548
63.8978,2.14407
63.931,2.13701
63.9641,2.09322
63.9972,2.13277
64.0303,2.11017
64.0633,2.09322
64.0964,2.08616
64.1294,2.09322
64.1624,2.0678
64.1953,2.08898
64.2283,2.07203
64.2612,2.05367
64.2941,2.07062
64.327,2.06073
64.3599,2.07203
64.3927,2.06356
64.4255,2.06497
64.4582,2.06497
64.491,2.07062
64.5237,2.05226
64.5563,2.06215
64.589,2.07486
64.6216,2.08192
64.6542,2.06073
64.6867,2.06356
64.7192,2.0678
64.7517,2.06215
64.7842,2.06638
64.8166,2.07203
64.849,2.0678
64.8814,2.07062
64.9137,2.05508
64.946,2.06356
64.9783,2.07345
65.0105,2.05508
65.0428,2.0791
65.075,2.07345
65.1071,2.07062
65.1393,2.07768
65.1714,2.04944
65.2035,2.07768
65.2355,2.04944
65.2676,2.05932
65.2996,2.06356
65.3315,2.06215
65.3635,2.05508
65.3954,2.06638
65.4273,2.0565
65.4592,2.05791
65.4911,2.0565
65.5229,2.0678
65.5547,2.06356
65.5865,2.05791
65.6182,2.0565
65.6499,2.05367
65.6817,2.06073
65.7133,2.07768
65.745,2.05226
65.7766,2.05226
65.8083,2.0339
65.8398,2.05226
65.8714,2.05085
65.903,2.06215
65.9345,2.05508
65.966,2.05226
65.9975,2.06356
66.0289,2.04802