File: projects/solarcell/xrd/XRD-new method/XRD/input data/sample4.csv
Angle,intensity
27.9833,3.01504
28.0153,3.01629
28.0474,3.02506
28.0795,3.01754
28.1115,3.01253
28.1436,3.01003
28.1756,3.02005
28.2077,3.01003
28.2398,3.01754
28.2718,3.01504
28.3039,3.02256
28.336,3.02005
28.3681,3.0213
28.4001,3.01504
28.4322,3.01629
28.4643,3.01629
28.4964,3.01754
28.5285,3.0188
28.5606,3.01754
28.5927,3.02381
28.6248,3.0213
28.6569,3.02381
28.689,3.02005
28.7211,3.01629
28.7532,3.01754
28.7853,3.02005
28.8174,3.01378
28.8495,3.02256
28.8816,3.0188
28.9137,3.01629
28.9458,3.01754
28.978,3.01504
29.0101,3.01754
29.0422,3.01754
29.0743,3.01629
29.1065,3.02757
29.1386,3.01003
29.1708,3.02506
29.2029,3.0188
29.235,3.01378
29.2672,3.0188
29.2993,3.0213
29.3315,3.02005
29.3636,3.01128
29.3958,3.0213
29.4279,3.01629
29.4601,3.01629
29.4923,3.0188
29.5244,3.03133
29.5566,3.01128
29.5887,3.02005
29.6209,3.02632
29.6531,3.01754
29.6852,3.0213
29.7174,3.02381
29.7496,3.01629
29.7818,3.02005
29.8139,3.01754
29.8461,3.02632
29.8783,3.02506
29.9104,3.01754
29.9426,3.02632
29.9748,3.01253
30.007,3.01504
30.0391,3.02005
30.0713,3.01754
30.1035,3.01754
30.1357,3.02506
30.1678,3.02256
30.2,3.02256
30.2322,3.02381
30.2643,3.03008
30.2965,3.02381
30.3287,3.01629
30.3608,3.01504
30.393,3.01253
30.4252,3.02632
30.4573,3.02381
30.4895,3.0188
30.5217,3.01253
30.5538,3.02506
30.586,3.0213
30.6181,3.01253
30.6503,3.01629
30.6825,3.02005
30.7146,3.02381
30.7468,3.03258
30.7789,3.01504
30.811,3.01378
30.8432,3.0188
30.8753,3.01253
30.9075,3.02381
30.9396,3.02506
30.9717,3.0188
31.0039,3.02256
31.036,3.0188
31.0681,3.0213
31.1002,3.02632
31.1323,3.0213
31.1645,3.01378
31.1966,3.02005
31.2287,3.02381
31.2608,3.02256
31.2929,3.03008
31.325,3.02256
31.3571,3.02882
31.3891,3.0213
31.4212,3.03634
31.4533,3.06266
31.4854,3.06391
31.5174,3.07769
31.5495,3.08521
31.5816,3.10777
31.6136,3.11905
31.6457,3.16667
31.6777,3.20426
31.7098,3.2406
31.7418,3.2807
31.7738,3.26566
31.8058,3.2782
31.8379,3.33835
31.8699,3.41479
31.9019,3.46742
31.9339,3.54261
31.9659,3.52757
31.9979,3.63659
32.0298,3.63158
32.0618,3.63534
32.0938,3.71053
32.1258,3.78446
32.1577,3.77193
32.1897,3.63409
32.2216,3.56892
32.2535,3.47744
32.2855,3.33208
32.3174,3.27318
32.3493,3.18672
32.3812,3.12907
32.4131,3.09148
32.445,3.05764
32.4769,3.05138
32.5088,3.05263
32.5407,3.02882
32.5725,3.03509
32.6044,3.02256
32.6362,3.02506
32.6681,3.03008
32.6999,3.01754
32.7317,3.02005
32.7635,3.01378
32.7954,3.02506
32.8272,3.02256
32.8589,3.01253
32.8907,3.01504
32.9225,3.03133
32.9543,3.01629
32.986,3.0213
33.0178,3.00877
33.0495,3.02005
33.0812,3.02005
33.1129,3.0188
33.1447,3.0188
33.1764,3.0213
33.208,3.01003
33.2397,3.02632
33.2714,3.01629
33.3031,3.01504
33.3347,3.01629
33.3663,3.01253
33.398,3.02381
33.4296,3.01378
33.4612,3.02632
33.4928,3.02757
33.5244,3.01504
33.556,3.01253
33.5875,3.02005
33.6191,3.02005
33.6506,3.0188
33.6821,3.01629
33.7137,3.01003
33.7452,3.02882
33.7767,3.03133
33.8082,3.02632
33.8396,3.01629
33.8711,3.01378
33.9026,3.02005
33.934,3.02506
33.9654,3.01754
33.9969,3.02005
34.0283,3.03008
34.0597,3.02256
34.0911,3.02381
34.1226,3.02256
34.154,3.02506
34.1854,3.02381
34.2168,3.02632
34.2482,3.02256
34.2796,3.03008
34.311,3.02506
34.3425,3.02506
34.3739,3.03885
34.4053,3.03509
34.4367,3.03133
34.4682,3.0589
34.4996,3.04386
34.5311,3.1416
34.5625,3.10025
34.594,3.20677
34.6255,3.19549
34.657,3.24937
34.6885,3.23434
34.72,3.28321
34.7516,3.29323
34.7831,3.28947
34.8147,3.33083
34.8463,3.36842
34.8779,3.35464
34.9095,3.30075
34.9411,3.2782
34.9728,3.2193
35.0045,3.18296
35.0362,3.14662
35.0679,3.1015
35.0997,3.10902
35.1315,3.11779
35.1633,3.08271
35.1951,3.08772
35.227,3.06015
35.2588,3.07018
35.2908,3.03008
35.3227,3.03885
35.3547,3.05764
35.3867,3.03258
35.4187,3.03008
35.4508,3.02256
35.4829,3.04386
35.5151,3.0213
35.5472,3.02506
35.5795,3.01629
35.6117,3.01504
35.644,3.02005
35.6763,3.0213
35.7087,3.0213
35.7411,3.03133
35.7736,3.03509
35.8061,3.02381
35.8386,3.04511
35.8712,3.0401
35.9039,3.05388
35.9366,3.05639
35.9693,3.06516
36.0021,3.09398
36.0349,3.09774
36.0677,3.11404
36.1006,3.15915
36.1335,3.16792
36.1665,3.21178
36.1995,3.25313
36.2325,3.25564
36.2655,3.33208
36.2986,3.37093
36.3317,3.38471
36.3648,3.40977
36.3979,3.41353
36.4311,3.5401
36.4643,3.58145
36.4974,3.61278
36.5306,3.63033
36.5638,3.68045
36.597,3.70301
36.6302,3.81579
36.6635,3.87093
36.6967,4
36.7299,3.97368
36.7631,3.96617
36.7963,3.87093
36.8295,3.79449
36.8627,3.68421
36.8959,3.4787
36.9291,3.34211
36.9622,3.24937
36.9954,3.19674
37.0285,3.14787
37.0616,3.08772
37.0947,3.0589
37.1278,3.05013
37.1608,3.05013
37.1938,3.03885
37.2268,3.02005
37.2597,3.02506
37.2926,3.02506
37.3255,3.02757
37.3584,3.02381
37.3912,3.0188
37.4239,3.02506
37.4566,3.0213
37.4893,3.0213
37.5219,3.01629
37.5545,3.01754
37.587,3.0188
37.6195,3.01504
37.6519,3.0188
37.6842,3.01754
37.7165,3.0188
37.7487,3.0213
37.7809,3.01754
37.813,3.01629
37.8451,3.01504
37.877,3.02381
37.9089,3.02256
37.9407,3.01629
37.9725,3.01003
38.0042,3.01629
38.0358,3.01754
38.0673,3.02506
38.0988,3.01003
38.1302,3.01754
38.1616,3.00877
38.1929,3.01754
38.2241,3.00752
38.2553,3.01128
38.2865,3.00877
38.3175,3.00752
38.3486,3.01128
38.3796,3.02005
38.4105,3.02256
38.4414,3.01128
38.4722,3.01629
38.503,3.01378
38.5338,3.01504
38.5645,3.02256
38.5952,3.01629
38.6258,3.01003
38.6565,3.01253
38.687,3.01504
38.7176,3.01754
38.7481,3.00752
38.7786,3.01629
38.8091,3.01378
38.8395,3.01378
38.87,3.02256
38.9004,3.01128
38.9308,3.01629
38.9611,3.01378
38.9915,3.00877
39.0218,3.01003
39.0522,3.01629
39.0825,3.01253
39.1128,3.01378
39.1431,3.00627
39.1734,3.02256
39.2037,3.0188
39.234,3.0213
39.2643,3.01003
39.2946,3.01629
39.325,3.01253
39.3553,3.01504
39.3856,3.00627
39.4159,3.01629
39.4463,3.01504
39.4766,3.01629
39.507,3.00752
39.5374,3.01504
39.5678,3.02256
39.5982,3.0188
39.6286,3.01003
39.6591,3.01003
39.6896,3.00877
39.7201,3.00877
39.7507,3.0188
39.7812,3.01629
39.8119,3.01253
39.8425,3.01253
39.8732,3.01754
39.9039,3.00752
39.9346,3.01504
39.9654,3.00877
39.9962,3.01378
40.0271,3.01629
40.0579,3.01378
40.0888,3.00627
40.1198,3.00877
40.1508,3.01003
40.1818,3.01504
40.2128,3.01629
40.2439,3.01378
40.275,3.00877
40.3061,3.01378
40.3373,3.01754
40.3685,3.01504
40.3997,3.01629
40.4309,3.0188
40.4622,3.01253
40.4935,3.02757
40.5249,3.01253
40.5562,3.00752
40.5876,3.01003
40.619,3.01253
40.6505,3.0188
40.6819,3.00877
40.7134,3.01128
40.745,3.02005
40.7765,3.01003
40.8081,3.00752
40.8397,3.01629
40.8713,3.00877
40.903,3.01754
40.9346,3.01003
40.9663,3.01378
40.998,3.01128
41.0298,3.01253
41.0616,3.01003
41.0933,3.02005
41.1251,3.00752
41.157,3.01378
41.1888,3.01128
41.2207,3.01253
41.2526,3.01504
41.2845,3.01128
41.3164,3.01378
41.3484,3.01504
41.3804,3.01003
41.4123,3.01378
41.4444,3.01629
41.4764,3.02256
41.5084,3.01378
41.5405,3.01504
41.5726,3.01253
41.6047,3.00501
41.6368,3.00501
41.6689,3.0188
41.701,3.02005
41.7332,3.01378
41.7654,3.01629
41.7976,3.01128
41.8298,3.01629
41.862,3.01003
41.8942,3.01378
41.9265,3.01378
41.9587,3.01253
41.991,3.00627
42.0233,3.00877
42.0556,3.01128
42.0879,3.01128
42.1202,3.01378
42.1526,3.00501
42.1849,3.01003
42.2173,3.01754
42.2496,3.01378
42.282,3.00627
42.3144,3.01003
42.3468,3.01128
42.3792,3.01378
42.4116,3.00251
42.444,3.01504
42.4764,3.00627
42.5089,3.01629
42.5413,3.01003
42.5738,3.01003
42.6062,3.01378
42.6387,3.01754
42.6711,3.01378
42.7036,3.01128
42.7361,3.01253
42.7686,3.00752
42.8011,3.01253
42.8336,3.01253
42.8661,3.01003
42.8986,3.00877
42.9311,3.01003
42.9636,3.00627
42.9961,3.00627
43.0286,3.00627
43.0611,3.00877
43.0936,3.01128
43.1261,3.00627
43.1587,3.01253
43.1912,3.01504
43.2237,3.01003
43.2562,3.01378
43.2887,3.01754
43.3213,3.01003
43.3538,3.01003
43.3863,3.00877
43.4188,3.01504
43.4513,3.01128
43.4838,3.01253
43.5163,3.02005
43.5488,3.01754
43.5813,3.00877
43.6138,3.01253
43.6463,3.01128
43.6788,3.01504
43.7113,3.01504
43.7438,3.01754
43.7763,3.01128
43.8088,3.01378
43.8413,3.01128
43.8737,3.01253
43.9062,3.01003
43.9387,3.00877
43.9712,3.01128
44.0036,3.01003
44.0361,3.01504
44.0685,3.00752
44.101,3.01128
44.1335,3.01003
44.1659,3.01504
44.1984,3.0188
44.2308,3.00877
44.2632,3.00877
44.2957,3.01003
44.3281,3.01629
44.3606,3.01003
44.393,3.00376
44.4254,3.01003
44.4578,3.01253
44.4903,3.00752
44.5227,3.01003
44.5551,3.01378
44.5875,3.01253
44.6199,3.01128
44.6523,3.00877
44.6847,3.01128
44.7171,3.00501
44.7495,3.00877
44.7819,3.01629
44.8143,3.01253
44.8467,3.01378
44.8791,3.01003
44.9115,3.00877
44.9438,3.00376
44.9762,3.00627
45.0086,3.01128
45.041,3.00752
45.0733,3.00877
45.1057,3.01128
45.1381,3.00877
45.1704,3.00251
45.2028,3.01128
45.2351,3.00752
45.2675,3.01253
45.2998,3.02005
45.3321,3.01378
45.3645,3.00877
45.3968,3.01003
45.4292,3.01003
45.4615,3.01253
45.4938,3.01504
45.5261,3.01003
45.5585,3.01128
45.5908,3.01629
45.6231,3.00627
45.6554,3.00752
45.6877,3.01253
45.72,3.00752
45.7523,3.00251
45.7846,3.01003
45.8169,3.00877
45.8492,3.00877
45.8815,3.01253
45.9137,3.00877
45.946,3.01128
45.9783,3.00877
46.0106,3.00877
46.0428,3.00752
46.0751,3.00376
46.1074,3.01504
46.1396,3.01003
46.1719,3.00877
46.2041,3.01378
46.2364,3.01504
46.2686,3.01003
46.3009,3.01629
46.3331,3.01003
46.3654,3.01128
46.3976,3.00501
46.4298,3.01003
46.462,3.01378
46.4943,3.01128
46.5265,3.01003
46.5587,3.00627
46.5909,3.01128
46.6231,3.00877
46.6553,3.00501
46.6875,3.01378
46.7197,3.01253
46.7519,3.01253
46.7841,3.01629
46.8163,3.0188
46.8485,3.00752
46.8807,3.01378
46.9128,3.02005
46.945,3.01003
46.9772,3.00376
47.0094,3.01629
47.0415,3.01253
47.0737,3.01253
47.1058,3.01504
47.138,3.01253
47.1701,3.01378
47.2023,3.0213
47.2344,3.01629
47.2666,3.01378
47.2987,3.02256
47.3308,3.0188
47.3629,3.0213
47.3951,3.0188
47.4272,3.03008
47.4593,3.04261
47.4914,3.03509
47.5235,3.05388
47.5556,3.05388
47.5877,3.05263
47.6198,3.07519
47.6519,3.07644
47.684,3.08271
47.7161,3.10276
47.7482,3.0802
47.7803,3.0589
47.8123,3.06767
47.8444,3.07519
47.8765,3.09273
47.9085,3.09148
47.9406,3.099
47.9726,3.10401
48.0047,3.09649
48.0367,3.13409
48.0688,3.11278
48.1008,3.11905
48.1329,3.11529
48.1649,3.14536
48.1969,3.14662
48.229,3.14912
48.261,3.1203
48.293,3.10401
48.325,3.10276
48.357,3.11028
48.389,3.07769
48.421,3.05639
48.453,3.06767
48.485,3.02757
48.517,3.02506
48.549,3.02381
48.581,3.02256
48.613,3.02757
48.6449,3.01504
48.6769,3.01128
48.7089,3.01003
48.7408,3.00877
48.7728,3.01128
48.8048,3.01003
48.8367,3.01003
48.8687,3.00877
48.9006,3.00752
48.9326,3.01128
48.9645,3.01504
48.9964,3.01504
49.0284,3.00877
49.0603,3.01128
49.0922,3.00877
49.1242,3.00752
49.1561,3.00627
49.188,3.00752
49.22,3.01504
49.2519,3.01754
49.2838,3.01003
49.3157,3.01128
49.3476,3.00752
49.3795,3.01128
49.4115,3.01253
49.4434,3.00752
49.4753,3.01128
49.5072,3.00752
49.5391,3.00752
49.571,3.01504
49.6029,3.01128
49.6348,3.01754
49.6667,3.01128
49.6986,3.00877
49.7305,3.01629
49.7624,3.00752
49.7943,3.00251
49.8262,3.01253
49.8581,3.00752
49.89,3.01003
49.9219,3.01128
49.9538,3.01003
49.9857,3.01003
50.0176,3.00877
50.0495,3.01128
50.0814,3.01754
50.1133,3.01253
50.1452,3.01003
50.1771,3.00752
50.209,3.01378
50.241,3.01128
50.2729,3.00752
50.3048,3.00251
50.3367,3.00752
50.3686,3.00752
50.4005,3.00877
50.4324,3.01253
50.4643,3.01378
50.4962,3.00877
50.5282,3.01003
50.5601,3.01128
50.592,3.01253
50.6239,3.00877
50.6558,3.01504
50.6878,3.01003
50.7197,3.00877
50.7516,3.01504
50.7836,3.01128
50.8155,3.01003
50.8474,3.00627
50.8794,3.00877
50.9113,3.01128
50.9433,3.00752
50.9752,3.01378
51.0072,3.00877
51.0391,3.0188
51.0711,3.01128
51.103,3.00627
51.135,3.0188
51.167,3.00125
51.1989,3.00752
51.2309,3.00752
51.2629,3.01003
51.2949,3.01003
51.3269,3.01253
51.3589,3.00501
51.3909,3.00501
51.4229,3.01003
51.4549,3.00752
51.4869,3.00877
51.5189,3.00627
51.5509,3.00752
51.5829,3.00752
51.615,3.00501
51.647,3.01128
51.679,3.01003
51.7111,3.00501
51.7431,3.00877
51.7752,3.01754
51.8072,3.01253
51.8393,3.00752
51.8714,3.00627
51.9034,3.00376
51.9355,3.00877
51.9676,3.00752
51.9997,3.00627
52.0318,3.00501
52.0639,3.01629
52.096,3.00376
52.1281,3.00877
52.1602,3.00752
52.1924,3.00501
52.2245,3.00877
52.2566,3.00752
52.2888,3.01003
52.3209,3.01003
52.3531,3.00501
52.3853,3.00877
52.4174,3.01128
52.4496,3.00877
52.4818,3.00752
52.514,3.00877
52.5462,3.00877
52.5784,3.00251
52.6106,3.00752
52.6429,3.01003
52.6751,3.01128
52.7074,3.01003
52.7396,3.00627
52.7719,3.01504
52.8041,3.01003
52.8364,3.01003
52.8687,3.00627
52.901,3.01003
52.9333,3.01128
52.9656,3.00752
52.9979,3.00752
53.0302,3.01128
53.0626,3.01378
53.0949,3.00125
53.1273,3.00877
53.1596,3.00752
53.192,3.00627
53.2244,3.00877
53.2568,3.01003
53.2892,3.00627
53.3216,3.00501
53.354,3.00251
53.3864,3.00752
53.4188,3.01253
53.4513,3.00376
53.4837,3.01253
53.5162,3.01253
53.5486,3.00627
53.5811,3.00627
53.6136,3.00501
53.646,3.00627
53.6785,3.00752
53.711,3.00627
53.7435,3.01003
53.776,3.01003
53.8085,3.01128
53.841,3.01128
53.8735,3.00877
53.906,3.00376
53.9385,3.00877
53.971,3.01128
54.0035,3.00376
54.036,3.01003
54.0685,3.01003
54.101,3.00627
54.1335,3.00752
54.166,3.00877
54.1985,3.01378
54.231,3.01003
54.2635,3.00752
54.296,3.01629
54.3285,3.01253
54.361,3.00877
54.3935,3.01128
54.426,3.00627
54.4585,3.00501
54.491,3.01378
54.5234,3.00752
54.5559,3.00752
54.5884,3.00752
54.6209,3.00627
54.6533,3.01003
54.6858,3.01629
54.7182,3.00627
54.7506,3.01128
54.7831,3.01504
54.8155,3.00627
54.8479,3.00877
54.8803,3.01504
54.9127,3.01253
54.9451,3.01378
54.9775,3.01003
55.0098,3.01128
55.0422,3.01128
55.0746,3.00251
55.1069,3.00877
55.1392,3.01128
55.1715,3.01003
55.2038,3.00877
55.2361,3.01003
55.2684,3.00877
55.3007,3.01378
55.3329,3.02005
55.3652,3.00627
55.3974,3.01629
55.4296,3.01253
55.4618,3.00877
55.494,3.01253
55.5262,3.01003
55.5583,3.00752
55.5905,3.01253
55.6226,3.00752
55.6547,3.01378
55.6868,3.01504
55.7189,3.00877
55.7509,3.00376
55.7829,3.00376
55.815,3.01629
55.847,3.00627
55.8789,3.01754
55.9109,3.01128
55.9428,3.0188
55.9748,3.01253
56.0067,3.00627
56.0385,3.02005
56.0704,3.01253
56.1022,3.01003
56.134,3.01253
56.1658,3.01754
56.1976,3.02005
56.2294,3.0188
56.2611,3.01504
56.2928,3.01754
56.3245,3.01754
56.3561,3.03509
56.3878,3.02882
56.4194,3.02632
56.451,3.03885
56.4826,3.03885
56.5142,3.04386
56.5457,3.05514
56.5772,3.04386
56.6087,3.07895
56.6402,3.08647
56.6717,3.13033
56.7032,3.12657
56.7346,3.11905
56.7661,3.14662
56.7975,3.11905
56.8289,3.13409
56.8603,3.10902
56.8917,3.15288
56.923,3.18421
56.9544,3.18922
56.9857,3.22431
57.0171,3.23434
57.0484,3.22055
57.0797,3.24311
57.111,3.24687
57.1423,3.19173
57.1735,3.21554
57.2048,3.22682
57.2361,3.23935
57.2673,3.2782
57.2986,3.32832
57.3298,3.34712
57.361,3.33709
57.3922,3.32456
57.4235,3.35088
57.4547,3.30952
57.4859,3.2995
57.5171,3.24687
57.5483,3.21303
57.5795,3.19799
57.6106,3.15288
57.6418,3.14286
57.673,3.11654
57.7042,3.07143
57.7354,3.0589
57.7665,3.05263
57.7977,3.02757
57.8289,3.02757
57.8601,3.02256
57.8913,3.02381
57.9225,3.02506
57.9537,3.0188
57.9849,3.01253
58.0161,3.00877
58.0473,3.01253
58.0785,3.01253
58.1097,3.00501
58.141,3.00752
58.1722,3.01504
58.2035,3.01128
58.2347,3.01629
58.266,3.01504
58.2973,3.01504
58.3286,3.00752
58.36,3.00877
58.3913,3.00752
58.4227,3.01253
58.454,3.00501
58.4854,3.01128
58.5168,3.0188
58.5483,3.01003
58.5797,3.01003
58.6112,3.01003
58.6427,3.00877
58.6742,3.01003
58.7058,3.00877
58.7373,3.00877
58.7689,3.01253
58.8005,3.00501
58.8322,3.01504
58.8638,3.00877
58.8955,3.01003
58.9273,3.00627
58.959,3.00752
58.9908,3.00877
59.0227,3.00877
59.0545,3.01504
59.0864,3.00501
59.1183,3.00501
59.1503,3.00501
59.1822,3.01003
59.2143,3.01253
59.2463,3.01128
59.2783,3.00877
59.3104,3.00877
59.3425,3.00501
59.3746,3.00752
59.4068,3.01253
59.4389,3.01128
59.4711,3.01253
59.5033,3.00376
59.5355,3.01128
59.5677,3.01253
59.6,3.00752
59.6322,3.01128
59.6645,3.00752
59.6967,3.00627
59.729,3.00752
59.7613,3.00627
59.7935,3.00251
59.8258,3.00376
59.8581,3.00752
59.8904,3.01003
59.9227,3.00501
59.9549,3.01253
59.9872,3.00877
60.0195,3.00501
60.0517,3.01128
60.084,3.00752
60.1162,3.01378
60.1485,3.00251
60.1807,3.00376
60.2129,3.01128
60.2451,3.00125
60.2773,3.01253
60.3095,3.00251
60.3416,3.01128
60.3738,3.01003
60.4059,3.00501
60.438,3.00501
60.47,3.01003
60.5021,3.00501
60.5341,3.00877
60.5661,3.00251
60.5981,3.01253
60.6301,3.00627
60.6621,3.00877
60.694,3.01253
60.7259,3.01128
60.7579,3.00501
60.7898,3.01253
60.8217,3.01378
60.8536,3.00501
60.8855,3.01003
60.9174,3.00251
60.9493,3.01253
60.9812,3.00752
61.0131,3.00627
61.045,3.01378
61.0769,3.00627
61.1088,3.00752
61.1407,3.00627
61.1727,3.00877
61.2046,3.0188
61.2366,3.01003
61.2685,3.00627
61.3005,3.00877
61.3325,3.01003
61.3645,3.00627
61.3965,3.00877
61.4286,3.00627
61.4606,3.00501
61.4927,3.01253
61.5248,3.00752
61.557,3.00877
61.5891,3.00877
61.6213,3.00627
61.6535,3.00501
61.6858,3.00752
61.7181,3.01003
61.7504,3.01003
61.7828,3.00752
61.8152,3.01003
61.8476,3.01003
61.8801,3.00376
61.9126,3.01128
61.9451,3.01378
61.9777,3.01128
62.0103,3.00627
62.0429,3.01003
62.0756,3.01003
62.1083,3.00627
62.1411,3.01003
62.1738,3.0188
62.2066,3.01003
62.2395,3.01253
62.2723,3.01003
62.3052,3.00501
62.3381,3.00627
62.371,3.00627
62.404,3.01003
62.437,3.01253
62.47,3.01378
62.503,3.01504
62.536,3.01003
62.5691,3.00627
62.6022,3.01378
62.6353,3.02506
62.6684,3.01754
62.7015,3.01629
62.7347,3.0213
62.7678,3.02632
62.801,3.03258
62.8342,3.01754
62.8674,3.04135
62.9006,3.04511
62.9338,3.02882
62.967,3.03885
63.0003,3.04261
63.0335,3.0589
63.0668,3.0589
63.1,3.05263
63.1333,3.07268
63.1666,3.06892
63.1998,3.06266
63.2331,3.07769
63.2664,3.0802
63.2997,3.07644
63.333,3.09774
63.3662,3.07895
63.3995,3.09649
63.4328,3.1015
63.466,3.11278
63.4993,3.11278
63.5326,3.12406
63.5658,3.14536
63.5991,3.12281
63.6323,3.12155
63.6655,3.13158
63.6988,3.15038
63.732,3.13409
63.7652,3.15414
63.7984,3.18421
63.8315,3.19048
63.8647,3.17669
63.8978,3.17168
63.931,3.14662
63.9641,3.12406
63.9972,3.11028
64.0303,3.08897
64.0633,3.08521
64.0964,3.0589
64.1294,3.05263
64.1624,3.04511
64.1953,3.02882
64.2283,3.02381
64.2612,3.02757
64.2941,3.02632
64.327,3.01629
64.3599,3.01378
64.3927,3.00877
64.4255,3.01378
64.4582,3.01754
64.491,3.01504
64.5237,3.01754
64.5563,3.00752
64.589,3.00376
64.6216,3.00877
64.6542,3.02256
64.6867,3.00251
64.7192,3.01504
64.7517,3.01253
64.7842,3.01754
64.8166,3.01378
64.849,3.00251
64.8814,3.00877
64.9137,3.00752
64.946,3.00376
64.9783,3.01253
65.0105,3.01378
65.0428,3.00877
65.075,3.00752
65.1071,3.0188
65.1393,3.01253
65.1714,3.01253
65.2035,3.01128
65.2355,3.00877
65.2676,3.00501
65.2996,3.00752
65.3315,3.00752
65.3635,3.01003
65.3954,3.00501
65.4273,3.00627
65.4592,3.00376
65.4911,3.01003
65.5229,3.01128
65.5547,3.01003
65.5865,3.01378
65.6182,3.01504
65.6499,3.01128
65.6817,3.00877
65.7133,3.01128
65.745,3.01003
65.7766,3.01003
65.8083,3.00501
65.8398,3.01629
65.8714,3.00752
65.903,3.00877
65.9345,3.01128
65.966,3.01128
65.9975,3.00877
66.0289,3.00752