File: projects/solarcell/xrd/xrdpy/XRDpy/input data/sample2.csv
27.9833,1.01724
28.0153,1.01724
28.0474,1.01411
28.0795,1.02978
28.1115,1.02038
28.1436,1.01881
28.1756,1.01254
28.2077,1.01724
28.2398,1.01724
28.2718,1.02038
28.3039,1.02978
28.336,1.01724
28.3681,1.02038
28.4001,1.01254
28.4322,1.02038
28.4643,1.02038
28.4964,1.01881
28.5285,1.02038
28.5606,1.01881
28.5927,1.03448
28.6248,1.01881
28.6569,1.02665
28.689,1.02665
28.7211,1.02351
28.7532,1.02978
28.7853,1.03135
28.8174,1.01411
28.8495,1.02194
28.8816,1.01881
28.9137,1.02351
28.9458,1.01567
28.978,1.02665
29.0101,1.01411
29.0422,1.02194
29.0743,1.02351
29.1065,1.02665
29.1386,1.02665
29.1708,1.02038
29.2029,1.01567
29.235,1.02194
29.2672,1.01881
29.2993,1.02821
29.3315,1.01881
29.3636,1.02194
29.3958,1.02821
29.4279,1.01411
29.4601,1.02194
29.4923,1.01411
29.5244,1.01724
29.5566,1.02194
29.5887,1.01254
29.6209,1.01567
29.6531,1.01411
29.6852,1.02194
29.7174,1.01567
29.7496,1.02978
29.7818,1.02508
29.8139,1.02194
29.8461,1.02665
29.8783,1.01254
29.9104,1.03448
29.9426,1.01567
29.9748,1.02038
30.007,1.02665
30.0391,1.02351
30.0713,1.01881
30.1035,1.02038
30.1357,1.02821
30.1678,1.01881
30.2,1.02194
30.2322,1.02038
30.2643,1.02038
30.2965,1.02508
30.3287,1.02194
30.3608,1.02978
30.393,1.02038
30.4252,1.02665
30.4573,1.02351
30.4895,1.00784
30.5217,1.02194
30.5538,1.02508
30.586,1.01254
30.6181,1.02351
30.6503,1.01881
30.6825,1.01411
30.7146,1.01724
30.7468,1.01724
30.7789,1.02038
30.811,1.0094
30.8432,1.02038
30.8753,1.02194
30.9075,1.01254
30.9396,1.01881
30.9717,1.02821
31.0039,1.01724
31.036,1.02351
31.0681,1.01567
31.1002,1.02351
31.1323,1.01724
31.1645,1.01567
31.1966,1.02508
31.2287,1.02665
31.2608,1.02194
31.2929,1.02351
31.325,1.02508
31.3571,1.01724
31.3891,1.02038
31.4212,1.01567
31.4533,1.01881
31.4854,1.02351
31.5174,1.03135
31.5495,1.02508
31.5816,1.02978
31.6136,1.03605
31.6457,1.03605
31.6777,1.03918
31.7098,1.02038
31.7418,1.04389
31.7738,1.04702
31.8058,1.07524
31.8379,1.0721
31.8699,1.1348
31.9019,1.15517
31.9339,1.221
31.9659,1.29624
31.9979,1.39812
32.0298,1.48746
32.0618,1.62696
32.0938,1.69279
32.1258,1.60658
32.1577,1.5627
32.1897,1.44201
32.2216,1.32445
32.2535,1.32915
32.2855,1.29781
32.3174,1.21317
32.3493,1.2116
32.3812,1.1395
32.4131,1.13323
32.445,1.08621
32.4769,1.0627
32.5088,1.06583
32.5407,1.03135
32.5725,1.04232
32.6044,1.03605
32.6362,1.01881
32.6681,1.02665
32.6999,1.02194
32.7317,1.01724
32.7635,1.02508
32.7954,1.03762
32.8272,1.01567
32.8589,1.01567
32.8907,1.02038
32.9225,1.02194
32.9543,1.01724
32.986,1.02978
33.0178,1.02665
33.0495,1.02038
33.0812,1.02665
33.1129,1.02821
33.1447,1.02194
33.1764,1.02351
33.208,1.01567
33.2397,1.02194
33.2714,1.01881
33.3031,1.01724
33.3347,1.02038
33.3663,1.01724
33.398,1.01567
33.4296,1.02194
33.4612,1.01411
33.4928,1.01411
33.5244,1.02194
33.556,1.02508
33.5875,1.01567
33.6191,1.01881
33.6506,1.0094
33.6821,1.02351
33.7137,1.02038
33.7452,1.01411
33.7767,1.02194
33.8082,1.00784
33.8396,1.03135
33.8711,1.01411
33.9026,1.02194
33.934,1.00784
33.9654,1.01724
33.9969,1.02665
34.0283,1.01724
34.0597,1.01097
34.0911,1.02194
34.1226,1.02508
34.154,1.02508
34.1854,1.03292
34.2168,1.0094
34.2482,1.01567
34.2796,1.01881
34.311,1.03135
34.3425,1.02665
34.3739,1.04075
34.4053,1.05172
34.4367,1.0674
34.4682,1.07994
34.4996,1.11285
34.5311,1.10031
34.5625,1.07837
34.594,1.0768
34.6255,1.11442
34.657,1.15831
34.6885,1.18025
34.72,1.18339
34.7516,1.27429
34.7831,1.36207
34.8147,1.51724
34.8463,1.57994
34.8779,1.53605
34.9095,1.43887
34.9411,1.31975
34.9728,1.20219
35.0045,1.14577
35.0362,1.12853
35.0679,1.08777
35.0997,1.08307
35.1315,1.07994
35.1633,1.04859
35.1951,1.03605
35.227,1.03762
35.2588,1.02351
35.2908,1.02351
35.3227,1.02194
35.3547,1.02508
35.3867,1.01254
35.4187,1.02665
35.4508,1.02821
35.4829,1.01881
35.5151,1.02194
35.5472,1.02351
35.5795,1.02508
35.6117,1.02508
35.644,1.02821
35.6763,1.01567
35.7087,1.02351
35.7411,1.02038
35.7736,1.02351
35.8061,1.02978
35.8386,1.02038
35.8712,1.01567
35.9039,1.02821
35.9366,1.02978
35.9693,1.02665
36.0021,1.02038
36.0349,1.02665
36.0677,1.02665
36.1006,1.02508
36.1335,1.02978
36.1665,1.03292
36.1995,1.03605
36.2325,1.05643
36.2655,1.0627
36.2986,1.0768
36.3317,1.05643
36.3648,1.10815
36.3979,1.08621
36.4311,1.12539
36.4643,1.18966
36.4974,1.20533
36.5306,1.33072
36.5638,1.4953
36.597,1.58621
36.6302,1.71317
36.6635,1.86364
36.6967,1.88715
36.7299,1.91536
36.7631,1.99687
36.7963,2.0
36.8295,1.9373
36.8627,1.76959
36.8959,1.59248
36.9291,1.39969
36.9622,1.32132
36.9954,1.26803
37.0285,1.21003
37.0616,1.18966
37.0947,1.18809
37.1278,1.11285
37.1608,1.0721
37.1938,1.04859
37.2268,1.05643
37.2597,1.04389
37.2926,1.02038
37.3255,1.04232
37.3584,1.04075
37.3912,1.02978
37.4239,1.02038
37.4566,1.01567
37.4893,1.02508
37.5219,1.01881
37.5545,1.02194
37.587,1.02038
37.6195,1.02038
37.6519,1.01724
37.6842,1.02194
37.7165,1.02508
37.7487,1.02508
37.7809,1.02821
37.813,1.02351
37.8451,1.01411
37.877,1.02665
37.9089,1.01411
37.9407,1.01724
37.9725,1.01411
38.0042,1.01724
38.0358,1.02038
38.0673,1.02821
38.0988,1.01254
38.1302,1.01881
38.1616,1.01097
38.1929,1.01411
38.2241,1.02351
38.2553,1.01411
38.2865,1.01254
38.3175,1.01724
38.3486,1.01097
38.3796,1.01881
38.4105,1.01411
38.4414,1.02038
38.4722,1.01724
38.503,1.01254
38.5338,1.01567
38.5645,1.01567
38.5952,1.01254
38.6258,1.02038
38.6565,1.01411
38.687,1.0094
38.7176,1.01254
38.7481,1.02038
38.7786,1.01411
38.8091,1.02038
38.8395,1.01411
38.87,1.01254
38.9004,1.0094
38.9308,1.01724
38.9611,1.01567
38.9915,1.01097
39.0218,1.02038
39.0522,1.01881
39.0825,1.01881
39.1128,1.01411
39.1431,1.02194
39.1734,1.01567
39.2037,1.01567
39.234,1.02038
39.2643,1.01254
39.2946,1.01567
39.325,1.01254
39.3553,1.02351
39.3856,1.02978
39.4159,1.03135
39.4463,1.03292
39.4766,1.02194
39.507,1.03292
39.5374,1.01724
39.5678,1.02821
39.5982,1.01881
39.6286,1.01724
39.6591,1.02194
39.6896,1.02038
39.7201,1.01724
39.7507,1.03292
39.7812,1.01567
39.8119,1.01567
39.8425,1.02038
39.8732,1.01881
39.9039,1.0047
39.9346,1.00627
39.9654,1.0094
39.9962,1.01411
40.0271,1.02508
40.0579,1.01567
40.0888,1.01724
40.1198,1.01254
40.1508,1.0047
40.1818,1.01097
40.2128,1.01254
40.2439,1.01567
40.275,1.01881
40.3061,1.02194
40.3373,1.01567
40.3685,1.01411
40.3997,1.02038
40.4309,1.01567
40.4622,1.01097
40.4935,1.01254
40.5249,1.01724
40.5562,1.01724
40.5876,1.01567
40.619,1.01097
40.6505,1.00627
40.6819,1.01254
40.7134,1.02351
40.745,1.01724
40.7765,1.01724
40.8081,1.02194
40.8397,1.0094
40.8713,1.01254
40.903,1.02038
40.9346,1.01411
40.9663,1.01881
40.998,1.01411
41.0298,1.01881
41.0616,1.01254
41.0933,1.00784
41.1251,1.01724
41.157,1.01724
41.1888,1.01724
41.2207,1.01411
41.2526,1.01254
41.2845,1.01097
41.3164,1.01411
41.3484,1.02038
41.3804,1.01724
41.4123,1.02508
41.4444,1.0047
41.4764,1.0094
41.5084,1.01411
41.5405,1.01411
41.5726,1.01724
41.6047,1.02038
41.6368,1.01567
41.6689,1.01724
41.701,1.01097
41.7332,1.01411
41.7654,1.01881
41.7976,1.00627
41.8298,1.0094
41.862,1.01411
41.8942,1.01097
41.9265,1.01411
41.9587,1.01097
41.991,1.01411
42.0233,1.01881
42.0556,1.00627
42.0879,1.02038
42.1202,1.01881
42.1526,1.01567
42.1849,1.01254
42.2173,1.01881
42.2496,1.01881
42.282,1.01411
42.3144,1.01881
42.3468,1.0094
42.3792,1.00784
42.4116,1.01411
42.444,1.01724
42.4764,1.01097
42.5089,1.01724
42.5413,1.0094
42.5738,1.0094
42.6062,1.0094
42.6387,1.01411
42.6711,1.01411
42.7036,1.01254
42.7361,1.02038
42.7686,1.01724
42.8011,1.01567
42.8336,1.01567
42.8661,1.01254
42.8986,1.01724
42.9311,1.01567
42.9636,1.01724
42.9961,1.01254
43.0286,1.01567
43.0611,1.01411
43.0936,1.0047
43.1261,1.01097
43.1587,1.00627
43.1912,1.01411
43.2237,1.02194
43.2562,1.02038
43.2887,1.01254
43.3213,1.0094
43.3538,1.01097
43.3863,1.0094
43.4188,1.01097
43.4513,1.0094
43.4838,1.00784
43.5163,1.01724
43.5488,1.0094
43.5813,1.0094
43.6138,1.00784
43.6463,1.01724
43.6788,1.0094
43.7113,1.00767
43.7438,1.00627
43.7763,1.00784
43.8088,1.01097
43.8413,1.00784
43.8737,1.00784
43.9062,1.00157
43.9387,1.01411
43.9712,1.01411
44.0036,1.00784
44.0361,1.01567
44.0685,1.0094
44.101,1.00627
44.1335,1.02978
44.1659,1.02665
44.1984,1.01881
44.2308,1.01567
44.2632,1.01567
44.2957,1.01567
44.3281,1.01254
44.3606,1.01097
44.393,1.01254
44.4254,1.01411
44.4578,1.01567
44.4903,1.02194
44.5227,1.00313
44.5551,1.01567
44.5875,1.0094
44.6199,1.0094
44.6523,1.01724
44.6847,1.01724
44.7171,1.0094
44.7495,1.01411
44.7819,1.00784
44.8143,1.00784
44.8467,1.00784
44.8791,1.01254
44.9115,1.01724
44.9438,1.0094
44.9762,1.01411
45.0086,1.0094
45.041,1.01881
45.0733,1.0094
45.1057,1.01254
45.1381,1.01881
45.1704,1.01097
45.2028,1.01567
45.2351,1.01097
45.2675,1.0047
45.2998,1.0094
45.3321,1.01567
45.3645,1.01097
45.3968,1.01254
45.4292,1.01724
45.4615,1.0047
45.4938,1.01411
45.5261,1.00784
45.5585,1.01881
45.5908,1.00784
45.6231,1.00627
45.6554,1.01097
45.6877,1.01254
45.72,1.00627
45.7523,1.01567
45.7846,1.02038
45.8169,1.01254
45.8492,1.01881
45.8815,1.01097
45.9137,1.01724
45.946,1.0047
45.9783,1.0094
46.0106,1.01254
46.0428,1.0094
46.0751,1.01567
46.1074,1.00784
46.1396,1.01411
46.1719,1.00784
46.2041,1.0094
46.2364,1.00784
46.2686,1.01724
46.3009,1.0094
46.3331,1.01567
46.3654,1.00627
46.3976,1.00784
46.4298,1.01097
46.462,1.00784
46.4943,1.00784
46.5265,1.00157
46.5587,1.01411
46.5909,1.01411
46.6231,1.00784
46.6553,1.01567
46.6875,1.0094
46.7197,1.00627
46.7519,1.01411
46.7841,1.02194
46.8163,1.00784
46.8485,1.00627
46.8807,1.00627
46.9128,1.02038
46.945,1.01411
46.9772,1.01411
47.0094,1.01411
47.0415,1.01724
47.0737,1.00627
47.1058,1.01724
47.138,1.01881
47.1701,1.02821
47.2023,1.0047
47.2344,1.01724
47.2666,1.00784
47.2987,1.02194
47.3308,1.0094
47.3629,1.02508
47.3951,1.01724
47.4272,1.01254
47.4593,1.0094
47.4914,1.01411
47.5235,1.0047
47.5556,1.0094
47.5877,1.01097
47.6198,1.01881
47.6519,1.01881
47.684,1.03605
47.7161,1.02038
47.7482,1.03918
47.7803,1.03292
47.8123,1.02508
47.8444,1.03135
47.8765,1.03448
47.9085,1.03135
47.9406,1.04232
47.9726,1.06583
48.0047,1.09091
48.0367,1.11442
48.0688,1.15047
48.1008,1.16928
48.1329,1.19436
48.1649,1.19436
48.1969,1.18652
48.229,1.20846
48.261,1.17398
48.293,1.19279
48.325,1.12853
48.357,1.08307
48.389,1.09248
48.421,1.09404
48.453,1.08621
48.485,1.06426
48.517,1.05643
48.549,1.03605
48.581,1.04075
48.613,1.03762
48.6449,1.03605
48.6769,1.01881
48.7089,1.02351
48.7408,1.02038
48.7728,1.02351
48.8048,1.01881
48.8367,1.01567
48.8687,1.02038
48.9006,1.01097
48.9326,1.00784
48.9645,1.01097
48.9964,1.01097
49.0284,1.0094
49.0603,1.01567
49.0922,1.01567
49.1242,1.01724
49.1561,1.01097
49.188,1.00627
49.22,1.01254
49.2519,1.00627
49.2838,1.0094
49.3157,1.01097
49.3476,1.0094
49.3795,1.02038
49.4115,1.01411
49.4434,1.01567
49.4753,1.01254
49.5072,1.01567
49.5391,1.01254
49.571,1.0047
49.6029,1.01724
49.6348,1.0094
49.6667,1.00627
49.6986,1.01254
49.7305,1.01567
49.7624,1.01724
49.7943,1.01254
49.8262,1.00784
49.8581,1.01097
49.89,1.00784
49.9219,1.0094
49.9538,1.01097
49.9857,1.01097
50.0176,1.0094
50.0495,1.01097
50.0814,1.01881
50.1133,1.01254
50.1452,1.01254
50.1771,1.00784
50.209,1.0094
50.241,1.0094
50.2729,1.00627
50.3048,1.0094
50.3367,1.0047
50.3686,1.01724
50.4005,1.01567
50.4324,1.00784
50.4643,1.01097
50.4962,1.00627
50.5282,1.0047
50.5601,1.01567
50.592,1.01254
50.6239,1.01724
50.6558,1.01097
50.6878,1.00784
50.7197,1.01254
50.7516,1.01411
50.7836,1.0094
50.8155,1.01724
50.8474,1.0094
50.8794,1.00784
50.9113,1.01254
50.9433,1.01254
50.9752,1.01881
51.0072,1.0047
51.0391,1.00313
51.0711,1.01254
51.103,1.01567
51.135,1.00627
51.167,1.01254
51.1989,1.00157
51.2309,1.01097
51.2629,1.00784
51.2949,1.00313
51.3269,1.01254
51.3589,1.0047
51.3909,1.01411
51.4229,1.01097
51.4549,1.00627
51.4869,1.00627
51.5189,1.01254
51.5509,1.0094
51.5829,1.01254
51.615,1.00627
51.647,1.01254
51.679,1.01097
51.7111,1.00784
51.7431,1.01724
51.7752,1.01567
51.8072,1.0094
51.8393,1.01254
51.8714,1.0094
51.9034,1.00313
51.9355,1.00784
51.9676,1.01254
51.9997,1.01097
52.0318,1.01254
52.0639,1.01254
52.096,1.0094
52.1281,1.01254
52.1602,1.01411
52.1924,1.0047
52.2245,1.00627
52.2566,1.00627
52.2888,1.01567
52.3209,1.00627
52.3531,1.0094
52.3853,1.00784
52.4174,1.00313
52.4496,1.0094
52.4818,1.01097
52.514,1.0047
52.5462,1.0094
52.5784,1.0094
52.6106,1.01097
52.6429,1.01097
52.6751,1.00313
52.7074,1.01254
52.7396,1.00784
52.7719,1.01411
52.8041,1.01254
52.8364,1.01254
52.8687,1.0047
52.901,1.01254
52.9333,1.0094
52.9656,1.0094
52.9979,1.01254
53.0302,1.0094
53.0626,1.0094
53.0949,1.00157
53.1273,1.00627
53.1596,1.01881
53.192,1.01411
53.2244,1.00627
53.2568,1.02038
53.2892,1.01254
53.3216,1.00784
53.354,1.0047
53.3864,1.0094
53.4188,1.01254
53.4513,1.00784
53.4837,1.0094
53.5162,1.01411
53.5486,1.0047
53.5811,1.01097
53.6136,1.01411
53.646,1.0094
53.6785,1.01254
53.711,1.01097
53.7435,1.0094
53.776,1.00627
53.8085,1.01881
53.841,1.00784
53.8735,1.01567
53.906,1.01567
53.9385,1.01411
53.971,1.0094
54.0035,1.00784
54.036,1.01097
54.0685,1.01567
54.101,1.01097
54.1335,1.01411
54.166,1.01097
54.1985,1.01097
54.231,1.01881
54.2635,1.00627
54.296,1.00784
54.3285,1.01097
54.361,1.00784
54.3935,1.01097
54.426,1.01411
54.4585,1.0094
54.491,1.01254
54.5234,1.01411
54.5559,1.02038
54.5884,1.00627
54.6209,1.00627
54.6533,1.0094
54.6858,1.01097
54.7182,1.00784
54.7506,1.01254
54.7831,1.01567
54.8155,1.01724
54.8479,1.02351
54.8803,1.02508
54.9127,1.03448
54.9451,1.02978
54.9775,1.02821
55.0098,1.03135
55.0422,1.03762
55.0746,1.03292
55.1069,1.02194
55.1392,1.01097
55.1715,1.01411
55.2038,1.02194
55.2361,1.01097
55.2684,1.01254
55.3007,1.02508
55.3329,1.00627
55.3652,1.0094
55.3974,1.00313
55.4296,1.0094
55.4618,1.01567
55.494,1.00784
55.5262,1.00784
55.5583,1.01097
55.5905,1.00784
55.6226,1.00784
55.6547,1.01567
55.6868,1.01097
55.7189,1.0094
55.7509,1.01411
55.7829,1.01097
55.815,1.0094
55.847,1.0094
55.8789,1.00627
55.9109,1.0094
55.9428,1.00784
55.9748,1.01881
56.0067,1.01724
56.0385,1.0094
56.0704,1.01254
56.1022,1.00784
56.134,1.01411
56.1658,1.01881
56.1976,1.01097
56.2294,1.01724
56.2611,1.01097
56.2928,1.01254
56.3245,1.00627
56.3561,1.01097
56.3878,1.01724
56.4194,1.01881
56.451,1.01097
56.4826,1.02665
56.5142,1.01567
56.5457,1.01881
56.5772,1.0094
56.6087,1.01881
56.6402,1.01097
56.6717,1.01254
56.7032,1.02351
56.7346,1.01567
56.7661,1.02821
56.7975,1.02821
56.8289,1.02821
56.8603,1.07524
56.8917,1.15204
56.923,1.28213
56.9544,1.5
56.9857,1.66301
57.0171,1.71317
57.0484,1.61129
57.0797,1.41536
57.111,1.2931
57.1423,1.26646
57.1735,1.22571
57.2048,1.34169
57.2361,1.23668
57.2673,1.34639
57.2986,1.36677
57.3298,1.42006
57.361,1.40282
57.3922,1.39185
57.4235,1.30564
57.4547,1.27743
57.4859,1.20533
57.5171,1.18339
57.5483,1.14577
57.5795,1.17398
57.6106,1.1348
57.6418,1.13636
57.673,1.11442
57.7042,1.09091
57.7354,1.06426
57.7665,1.08464
57.7977,1.04232
57.8289,1.04702
57.8601,1.04859
57.8913,1.05329
57.9225,1.02821
57.9537,1.02351
57.9849,1.02038
58.0161,1.02665
58.0473,1.02508
58.0785,1.01881
58.1097,1.01881
58.141,1.01254
58.1722,1.01724
58.2035,1.01881
58.2347,1.01097
58.266,1.0094
58.2973,1.00784
58.3286,1.01724
58.36,1.01254
58.3913,1.01411
58.4227,1.01411
58.454,1.01097
58.4854,1.0094
58.5168,1.02038
58.5483,1.0094
58.5797,1.01097
58.6112,1.0047
58.6427,1.0094
58.6742,1.01724
58.7058,1.0094
58.7373,1.0094
58.7689,1.00784
58.8005,1.0094
58.8322,1.00784
58.8638,1.01254
58.8955,1.01411
58.9273,1.01724
58.959,1.01097
58.9908,1.00784
59.0227,1.0047
59.0545,1.0047
59.0864,1.01411
59.1183,1.01097
59.1503,1.00627
59.1822,1.0094
59.2143,1.01097
59.2463,1.01411
59.2783,1.0047
59.3104,1.01097
59.3425,1.01567
59.3746,1.0094
59.4068,1.02038
59.4389,1.0094
59.4711,1.0094
59.5033,1.01254
59.5355,1.00627
59.5677,1.00784
59.6,1.00627
59.6322,1.00784
59.6645,1.00784
59.6967,1.00784
59.729,1.01411
59.7613,1.01881
59.7935,1.0047
59.8258,1.00627
59.8581,1.00627
59.8904,1.00627
59.9227,1.00627
59.9549,1.01097
59.9872,1.01254
60.0195,1.01097
60.0517,1.01097
60.084,1.01411
60.1162,1.00313
60.1485,1.01411
60.1807,1.01254
60.2129,1.02508
60.2451,1.00627
60.2773,1.01097
60.3095,1.01254
60.3416,1.01097
60.3738,1.0047
60.4059,1.00784
60.438,1.00313
60.47,1.0047
60.5021,1.01411
60.5341,1.00784
60.5661,1.00784
60.5981,1.00627
60.6301,1.0047
60.6621,1.00627
60.694,1.01254
60.7259,1.00157
60.7579,1.01411
60.7898,1.01097
60.8217,1.0047
60.8536,1.0047
60.8855,1.0094
60.9174,1.01411
60.9493,1.0094
60.9812,1.00784
61.0131,1.0094
61.045,1.01411
61.0769,1.01567
61.1088,1.01097
61.1407,1.0094
61.1727,1.01097
61.2046,1.01567
61.2366,1.01254
61.2685,1.01411
61.3005,1.0094
61.3325,1.00784
61.3645,1.01411
61.3965,1.0094
61.4286,1.00627
61.4606,1.01097
61.4927,1.01097
61.5248,1.00784
61.557,1.00627
61.5891,1.01254
61.6213,1.01881
61.6535,1.00313
61.6858,1.01411
61.7181,1.01411
61.7504,1.00784
61.7828,1.01724
61.8152,1.00784
61.8476,1.01567
61.8801,1.00627
61.9126,1.0047
61.9451,1.01567
61.9777,1.01097
62.0103,1.01724
62.0429,1.00784
62.0756,1.00627
62.1083,1.00627
62.1411,1.0094
62.1738,1.01254
62.2066,1.01254
62.2395,1.01097
62.2723,1.01411
62.3052,1.01097
62.3381,1.00784
62.371,1.01097
62.404,1.01097
62.437,1.01411
62.47,1.0094
62.503,1.01097
62.536,1.01097
62.5691,1.01411
62.6022,1.01411
62.6353,1.01097
62.6684,1.01254
62.7015,1.01097
62.7347,1.01411
62.7678,1.01881
62.801,1.01881
62.8342,1.01097
62.8674,1.01097
62.9006,1.01097
62.9338,1.01097
62.967,1.01254
63.0003,1.01411
63.0335,1.00784
63.0668,1.01411
63.1,1.02351
63.1333,1.01097
63.1666,1.02194
63.1998,1.02038
63.2331,1.02665
63.2664,1.02821
63.2997,1.02821
63.333,1.02351
63.3662,1.03292
63.3995,1.04075
63.4328,1.05799
63.466,1.0627
63.4993,1.0721
63.5326,1.0768
63.5658,1.09404
63.5991,1.11755
63.6323,1.16458
63.6655,1.21317
63.6988,1.19906
63.732,1.23668
63.7652,1.20219
63.7984,1.2163
63.8315,1.2069
63.8647,1.17555
63.8978,1.22414
63.931,1.21787
63.9641,1.19279
63.9972,1.20219
64.0303,1.17555
64.0633,1.15361
64.0964,1.12069
64.1294,1.11755
64.1624,1.08934
64.1953,1.07994
64.2283,1.05956
64.2612,1.05172
64.2941,1.04389
64.327,1.04389
64.3599,1.04702
64.3927,1.02508
64.4255,1.03605
64.4582,1.02665
64.491,1.01567
64.5237,1.02821
64.5563,1.01567
64.589,1.01097
64.6216,1.0094
64.6542,1.01881
64.6867,1.01567
64.7192,1.01097
64.7517,1.01097
64.7842,1.01254
64.8166,1.01567
64.849,1.01411
64.8814,1.0047
64.9137,1.01881
64.946,1.01411
64.9783,1.01254
65.0105,1.01411
65.0428,1.01097
65.075,1.01254
65.1071,1.0094
65.1393,1.01254
65.1714,1.0094
65.2035,1.0047
65.2355,1.0094
65.2676,1.0047
65.2996,1.01411
65.3315,1.0047
65.3635,1.0094
65.3954,1.01254
65.4273,1.00784
65.4592,1.0094
65.4911,1.0094
65.5229,1.00784
65.5547,1.01567
65.5865,1.01097
65.6182,1.00157
65.6499,1.0047
65.6817,1.01881
65.7133,1.0047
65.745,1.0094
65.7766,1.01411
65.8083,1.00784
65.8398,1.00784
65.8714,1.00784
65.903,1.01097
65.9345,1.01097
65.966,1.01411
65.9975,1.01097
66.0289,1.01411