File: projects/solarcell/xrd/nezamloo/XRD+PL results/catboost_info/time_left.tsv
iter	Passed	Remaining
0	72	72708
1	74	37167
2	75	25210
3	77	19176
4	78	15581
5	79	13245
6	81	11541
7	82	10206
8	83	9191
9	85	8431
10	87	7833
11	88	7292
12	89	6811
13	90	6402
14	92	6066
15	94	5805
16	95	5522
17	96	5286
18	98	5075
19	99	4871
20	100	4702
21	101	4531
22	102	4371
23	104	4249
24	105	4127
25	107	4013
26	107	3887
27	108	3783
28	110	3689
29	111	3589
30	111	3499
31	112	3407
32	113	3315
33	113	3231
34	114	3158
35	115	3099
36	116	3027
37	116	2959
38	117	2901
39	118	2842
40	118	2782
41	119	2728
42	120	2674
43	120	2625
44	121	2574
45	121	2526
46	122	2480
47	122	2437
48	123	2395
49	123	2354
50	124	2317
51	125	2281
52	125	2244
53	126	2208
54	126	2174
55	127	2145
56	127	2115
57	128	2088
58	128	2056
59	129	2029
60	130	2002
61	130	1975
62	131	1949
63	131	1924
64	132	1899
65	132	1876
66	132	1851
67	133	1828
68	133	1805
69	134	1786
70	135	1768
71	135	1749
72	136	1730
73	136	1708
74	136	1689
75	137	1670
76	137	1651
77	138	1634
78	138	1615
79	139	1598
80	139	1583
81	139	1567
82	140	1552
83	140	1537
84	141	1526
85	142	1515
86	143	1500
87	143	1485
88	143	1472
89	144	1460
90	144	1447
91	145	1434
92	145	1421
93	146	1408
94	146	1395
95	147	1384
96	147	1372
97	147	1359
98	148	1347
99	148	1337
100	148	1325
101	149	1314
102	149	1304
103	150	1294
104	150	1284
105	151	1274
106	151	1264
107	152	1255
108	152	1245
109	152	1235
110	153	1227
111	153	1217
112	153	1208
113	154	1200
114	154	1192
115	155	1185
116	156	1180
117	157	1173
118	157	1166
119	157	1157
120	158	1149
121	158	1140
122	158	1133
123	159	1125
124	159	1117
125	160	1110
126	160	1104
127	161	1097
128	161	1091
129	162	1085
130	163	1081
131	163	1076
132	164	1071
133	164	1065
134	165	1060
135	165	1054
136	166	1048
137	166	1042
138	167	1035
139	167	1029
140	168	1023
141	168	1017
142	168	1011
143	169	1005
144	169	999
145	170	995
146	170	991
147	171	986
148	171	980
149	172	974
150	172	969
151	172	964
152	173	959
153	173	954
154	174	948
155	174	943
156	174	939
157	175	934
158	175	930
159	176	925
160	176	921
161	177	918
162	178	914
163	178	910
164	179	906
165	179	901
166	179	897
167	180	893
168	180	889
169	181	885
170	182	882
171	182	878
172	183	875
173	183	871
174	184	869
175	185	866
176	185	863
177	186	859
178	186	856
179	187	853
180	187	849
181	188	846
182	188	843
183	189	840
184	189	836
185	190	833
186	190	829
187	191	828
188	192	825
189	193	822
190	193	819
191	194	816
192	194	814
193	195	811
194	195	809
195	196	805
196	196	802
197	197	799
198	197	796
199	198	794
200	199	792
201	199	789
202	200	787
203	201	784
204	201	782
205	202	779
206	202	777
207	203	774
208	204	772
209	204	770
210	205	767
211	205	764
212	206	762
213	207	760
214	207	758
215	208	755
216	208	752
217	209	749
218	209	747
219	210	745
220	210	742
221	211	740
222	211	737
223	212	735
224	212	732
225	213	730
226	214	729
227	214	727
228	215	725
229	215	722
230	216	720
231	216	718
232	217	715
233	217	713
234	218	711
235	218	708
236	219	706
237	219	703
238	220	701
239	221	699
240	221	697
241	222	695
242	222	693
243	223	691
244	223	688
245	224	686
246	224	684
247	224	682
248	225	679
249	225	677
250	226	675
251	227	673
252	227	671
253	228	670
254	228	668
255	229	666
256	229	664
257	230	662
258	230	660
259	231	658
260	231	656
261	232	654
262	232	652
263	233	650
264	233	648
265	234	646
266	234	644
267	235	643
268	236	641
269	236	639
270	237	637
271	237	635
272	238	633
273	238	631
274	238	629
275	239	628
276	239	626
277	240	624
278	240	622
279	241	620
280	241	619
281	242	617
282	243	616
283	243	614
284	244	613
285	244	611
286	245	609
287	245	607
288	246	606
289	246	604
290	247	602
291	247	600
292	248	598
293	248	597
294	249	595
295	249	594
296	250	593
297	251	591
298	251	589
299	252	588
300	252	586
301	252	584
302	253	582
303	253	581
304	254	579
305	254	577
306	255	576
307	255	574
308	256	573
309	256	571
310	257	570
311	258	569
312	258	567
313	259	566
314	259	564
315	260	563
316	260	561
317	261	559
318	261	558
319	262	556
320	262	555
321	263	553
322	263	552
323	264	550
324	264	549
325	265	548
326	265	546
327	266	545
328	266	543
329	267	542
330	267	540
331	268	539
332	268	537
333	269	536
334	269	535
335	269	533
336	270	532
337	270	530
338	271	530
339	272	529
340	273	527
341	273	526
342	274	525
343	274	523
344	275	522
345	275	520
346	276	519
347	276	518
348	277	516
349	277	515
350	278	514
351	278	513
352	279	512
353	280	511
354	280	509
355	281	508
356	281	507
357	282	506
358	283	505
359	283	504
360	284	502
361	284	501
362	284	500
363	285	498
364	286	497
365	286	496
366	287	495
367	287	494
368	288	493
369	288	491
370	289	490
371	289	489
372	290	487
373	290	486
374	291	485
375	291	484
376	292	482
377	292	481
378	293	480
379	294	479
380	294	478
381	295	477
382	295	476
383	296	474
384	296	473
385	296	472
386	297	471
387	297	469
388	298	468
389	298	467
390	299	466
391	299	465
392	300	464
393	301	463
394	301	462
395	302	461
396	302	459
397	303	458
398	303	457
399	304	456
400	304	455
401	305	453
402	305	452
403	306	451
404	306	450
405	307	449
406	307	448
407	308	447
408	308	446
409	309	445
410	309	444
411	310	442
412	310	441
413	311	440
414	311	439
415	312	438
416	312	437
417	313	435
418	313	434
419	314	433
420	314	432
421	315	431
422	316	431
423	316	430
424	317	429
425	317	428
426	318	426
427	318	425
428	319	424
429	319	423
430	320	422
431	320	421
432	321	420
433	322	419
434	322	419
435	323	418
436	324	417
437	324	416
438	325	415
439	325	414
440	326	413
441	326	412
442	327	411
443	327	410
444	328	409
445	328	408
446	329	407
447	329	406
448	330	405
449	331	404
450	331	403
451	332	402
452	332	401
453	333	400
454	333	399
455	334	398
456	334	397
457	334	396
458	335	395
459	335	394
460	336	393
461	337	392
462	338	392
463	338	391
464	339	390
465	339	389
466	340	388
467	340	387
468	340	386
469	341	385
470	341	384
471	342	383
472	342	382
473	343	381
474	344	380
475	344	379
476	345	378
477	346	377
478	346	376
479	347	375
480	347	375
481	348	374
482	348	373
483	349	372
484	349	371
485	350	370
486	350	369
487	351	368
488	351	367
489	352	366
490	352	365
491	353	364
492	353	363
493	354	362
494	354	362
495	355	361
496	355	360
497	356	359
498	356	358
499	357	357
500	357	356
501	358	355
502	359	354
503	359	354
504	360	353
505	360	352
506	361	351
507	361	350
508	362	349
509	362	348
510	363	347
511	363	346
512	364	345
513	364	344
514	365	343
515	365	342
516	366	342
517	366	341
518	367	340
519	367	339
520	368	338
521	368	337
522	369	336
523	369	335
524	370	334
525	370	334
526	371	333
527	371	332
528	372	331
529	372	330
530	373	329
531	374	329
532	374	328
533	375	327
534	376	326
535	376	326
536	377	325
537	377	324
538	378	323
539	378	322
540	379	321
541	379	320
542	380	319
543	380	319
544	381	318
545	382	317
546	382	316
547	383	316
548	383	315
549	384	314
550	385	314
551	386	313
552	387	313
553	389	313
554	390	313
555	391	312
556	392	311
557	392	311
558	393	310
559	393	309
560	394	308
561	394	307
562	395	307
563	396	306
564	396	305
565	397	304
566	397	303
567	398	302
568	398	301
569	398	300
570	399	300
571	399	299
572	400	298
573	400	297
574	401	296
575	401	295
576	402	295
577	403	294
578	403	293
579	404	292
580	404	291
581	405	291
582	405	290
583	406	289
584	406	288
585	407	287
586	407	286
587	408	286
588	408	285
589	409	284
590	409	283
591	410	282
592	411	282
593	411	281
594	412	280
595	412	279
596	412	278
597	413	277
598	413	277
599	414	276
600	414	275
601	415	274
602	415	273
603	416	272
604	416	272
605	417	271
606	418	270
607	418	270
608	419	269
609	419	268
610	420	267
611	420	266
612	421	265
613	421	265
614	422	264
615	422	263
616	423	262
617	423	261
618	424	261
619	424	260
620	425	259
621	425	258
622	426	258
623	426	257
624	427	256
625	427	255
626	428	254
627	428	253
628	429	253
629	429	252
630	430	251
631	430	250
632	431	250
633	431	249
634	432	248
635	433	247
636	433	247
637	434	246
638	434	245
639	435	244
640	435	243
641	436	243
642	436	242
643	437	241
644	437	240
645	438	240
646	438	239
647	439	238
648	439	237
649	440	237
650	441	236
651	441	235
652	441	234
653	442	234
654	442	233
655	443	232
656	443	231
657	444	230
658	444	230
659	445	229
660	445	228
661	446	227
662	447	227
663	447	226
664	448	225
665	448	225
666	449	224
667	449	223
668	450	222
669	450	222
670	451	221
671	451	220
672	452	219
673	452	218
674	453	218
675	454	217
676	454	217
677	455	216
678	455	215
679	456	214
680	456	214
681	457	213
682	457	212
683	458	211
684	458	211
685	459	210
686	459	209
687	460	208
688	461	208
689	461	207
690	462	206
691	462	205
692	463	205
693	463	204
694	464	203
695	465	203
696	465	202
697	466	201
698	466	200
699	466	200
700	467	199
701	468	198
702	469	198
703	469	197
704	469	196
705	470	195
706	470	195
707	471	194
708	471	193
709	472	193
710	473	192
711	473	191
712	474	191
713	475	190
714	476	189
715	476	189
716	477	188
717	478	187
718	478	187
719	478	186
720	479	185
721	479	184
722	480	184
723	481	183
724	481	182
725	481	181
726	482	181
727	483	180
728	483	179
729	484	179
730	484	178
731	485	177
732	485	176
733	486	176
734	486	175
735	487	174
736	487	174
737	488	173
738	488	172
739	489	171
740	489	171
741	490	170
742	491	169
743	491	169
744	492	168
745	492	167
746	493	166
747	493	166
748	494	165
749	494	164
750	495	164
751	495	163
752	496	162
753	496	161
754	496	161
755	497	160
756	498	159
757	498	159
758	499	158
759	499	157
760	500	157
761	500	156
762	501	155
763	501	154
764	502	154
765	502	153
766	503	152
767	503	152
768	503	151
769	504	150
770	505	150
771	506	149
772	506	148
773	506	148
774	507	147
775	507	146
776	508	145
777	508	145
778	509	144
779	509	143
780	510	143
781	510	142
782	511	141
783	512	141
784	512	140
785	513	139
786	513	139
787	514	138
788	514	137
789	515	136
790	515	136
791	516	135
792	516	134
793	517	134
794	517	133
795	518	132
796	518	132
797	519	131
798	519	130
799	520	130
800	520	129
801	521	128
802	521	128
803	522	127
804	522	126
805	523	125
806	523	125
807	524	124
808	524	123
809	525	123
810	525	122
811	526	121
812	527	121
813	527	120
814	528	119
815	528	119
816	529	118
817	529	117
818	530	117
819	530	116
820	530	115
821	531	115
822	531	114
823	532	113
824	532	113
825	533	112
826	534	111
827	534	111
828	535	110
829	535	109
830	536	109
831	536	108
832	537	107
833	537	107
834	538	106
835	539	105
836	539	105
837	540	104
838	541	103
839	542	103
840	542	102
841	543	101
842	543	101
843	544	100
844	545	99
845	545	99
846	546	98
847	546	98
848	547	97
849	547	96
850	548	96
851	549	95
852	550	94
853	550	94
854	551	93
855	551	92
856	552	92
857	553	91
858	553	90
859	554	90
860	554	89
861	555	88
862	556	88
863	557	87
864	558	87
865	558	86
866	559	85
867	560	85
868	561	84
869	562	84
870	564	83
871	565	83
872	566	82
873	567	81
874	567	81
875	568	80
876	569	79
877	570	79
878	571	78
879	572	78
880	573	77
881	574	76
882	574	76
883	575	75
884	575	74
885	576	74
886	577	73
887	577	72
888	578	72
889	579	71
890	579	70
891	580	70
892	580	69
893	581	68
894	582	68
895	582	67
896	583	66
897	583	66
898	584	65
899	585	65
900	586	64
901	587	63
902	587	63
903	588	62
904	589	61
905	589	61
906	590	60
907	591	59
908	591	59
909	594	58
910	595	58
911	596	57
912	596	56
913	597	56
914	598	55
915	598	54
916	599	54
917	600	53
918	600	52
919	601	52
920	602	51
921	602	50
922	603	50
923	603	49
924	604	49
925	604	48
926	605	47
927	605	47
928	606	46
929	607	45
930	607	45
931	608	44
932	609	43
933	609	43
934	610	42
935	610	41
936	611	41
937	621	41
938	624	40
939	625	39
940	627	39
941	628	38
942	629	38
943	631	37
944	632	36
945	633	36
946	634	35
947	636	34
948	637	34
949	638	33
950	640	32
951	641	32
952	642	31
953	644	31
954	645	30
955	646	29
956	648	29
957	649	28
958	650	27
959	651	27
960	653	26
961	654	25
962	655	25
963	656	24
964	656	23
965	657	23
966	658	22
967	658	21
968	659	21
969	659	20
970	660	19
971	661	19
972	661	18
973	663	17
974	664	17
975	665	16
976	666	15
977	667	15
978	669	14
979	670	13
980	671	12
981	673	12
982	674	11
983	674	10
984	675	10
985	675	9
986	676	8
987	676	8
988	677	7
989	678	6
990	678	6
991	679	5
992	679	4
993	680	4
994	680	3
995	681	2
996	681	2
997	682	1
998	682	0
999	683	0